id;species;test_date;test_time;test_order;video_box;camera;ISO;Exposure;observer;sociality_barred_id;sociality_black_id;capture_date;release_date;location;depth_feet;home_tank;tank_mate_id;home_tank_combination;SDL_cm;Distance_moved_cm;Velocity_cm.s;In_zone_Frequency;In_zone_cum_duration;In_zone_latency;Acceleration_min_cm.s2;Acceleration_max_cm.s2;vid_id;Distance_per_body_length;Velocity_body_length.s;escape_video_scored;escape_response_trial;starting_position;duration;quadrants;speed;reaction;swimming_behaviour;total.time.at.barred.stimulus;total.time.at.black.stimulus;total.time.at.rock;time.at.barred.stimulus.Trial.1;time.at.black.stimulus.Trial.1;time.at.rock.Trial.1;time.at.barred.stimulus.Trial.2;time.at.black.stimulus.Trial.2;time.at.rock.Trial.2
BD22-041;barred;17.10.2022;14:54:00;OFT_ESC_SOC;left_box;0A4F;1800;1;MH;BD22-033;BD22-029;15.10.2022;18.10.2022;Solarte_A_Slope;15 to 25;3;BD22-042;barred_barred;7,73;4586,4;8,49308;1;540,049;0;-898,268;975,925;E:\test_videos\OFT\vids_cut\041_OFT.mov-cut.mov;593,3247089;1,098716688;Mel;1;close_side;0,76;3;0,253333333;to_curtain_exclude;stationary;252;154;42;194;58;42;58;96;0
BD22-041;barred;17.10.2022;14:54:00;OFT_ESC_SOC;left_box;0A4F;1800;1;MH;BD22-033;BD22-029;15.10.2022;18.10.2022;Solarte_A_Slope;15 to 25;3;BD22-042;barred_barred;7,73;4586,4;8,49308;1;540,049;0;-898,268;975,925;E:\test_videos\OFT\vids_cut\041_OFT.mov-cut.mov;593,3247089;1,098716688;Mel;2;middle;0,64;3;0,213333333;to_hand_include;stationary;252;154;42;194;58;42;58;96;0
BD22-041;barred;17.10.2022;14:54:00;OFT_ESC_SOC;left_box;0A4F;1800;1;MH;BD22-033;BD22-029;15.10.2022;18.10.2022;Solarte_A_Slope;15 to 25;3;BD22-042;barred_barred;7,73;4586,4;8,49308;1;540,049;0;-898,268;975,925;E:\test_videos\OFT\vids_cut\041_OFT.mov-cut.mov;593,3247089;1,098716688;Mel;3;close_side;0,6;3;0,2;to_hand_include;stationary;252;154;42;194;58;42;58;96;0
BD22-041;barred;17.10.2022;14:54:00;OFT_ESC_SOC;left_box;0A4F;1800;1;MH;BD22-033;BD22-029;15.10.2022;18.10.2022;Solarte_A_Slope;15 to 25;3;BD22-042;barred_barred;7,73;4586,4;8,49308;1;540,049;0;-898,268;975,925;E:\test_videos\OFT\vids_cut\041_OFT.mov-cut.mov;593,3247089;1,098716688;Mel;4;far_side;0,64;2;0,32;to_hand_include;stationary;252;154;42;194;58;42;58;96;0
BD22-042;barred;17.10.2022;14:58:00;OFT_ESC_SOC;right_box;7607;1800;1;MH;BD22-028;BD22-024;15.10.2022;18.10.2022;Solarte_A_Slope;15 to 25;3;BD22-041;barred_barred;7,25;436,012;0,807406;1;540,049;0;-678,701;678,701;E:\test_videos\OFT\vids_cut\042_OFT.mp4-cut.mov;60,13958621;0,111366345;Marco;4;far_side;0,7;2;0,4;to_hand_include;stationary;268;218;0;268;218;0;NA;NA;NA
BD22-042;barred;17.10.2022;14:58:00;OFT_ESC_SOC;right_box;7607;1800;1;MH;BD22-028;BD22-024;15.10.2022;18.10.2022;Solarte_A_Slope;15 to 25;3;BD22-041;barred_barred;7,25;436,012;0,807406;1;540,049;0;-678,701;678,701;E:\test_videos\OFT\vids_cut\042_OFT.mp4-cut.mov;60,13958621;0,111366345;Marco;2;middle;1,6;4;0,325;to_curtain_exclude;stationary;268;218;0;268;218;0;NA;NA;NA
BD22-042;barred;17.10.2022;14:58:00;OFT_ESC_SOC;right_box;7607;1800;1;MH;BD22-028;BD22-024;15.10.2022;18.10.2022;Solarte_A_Slope;15 to 25;3;BD22-041;barred_barred;7,25;436,012;0,807406;1;540,049;0;-678,701;678,701;E:\test_videos\OFT\vids_cut\042_OFT.mp4-cut.mov;60,13958621;0,111366345;Marco;1;close_side;1,3;4;0,333333333;to_hand_include;stationary;268;218;0;268;218;0;NA;NA;NA
BD22-042;barred;17.10.2022;14:58:00;OFT_ESC_SOC;right_box;7607;1800;1;MH;BD22-028;BD22-024;15.10.2022;18.10.2022;Solarte_A_Slope;15 to 25;3;BD22-041;barred_barred;7,25;436,012;0,807406;1;540,049;0;-678,701;678,701;E:\test_videos\OFT\vids_cut\042_OFT.mp4-cut.mov;60,13958621;0,111366345;Marco;3;far_side;1;3;0,35;to_hand_include;stationary;268;218;0;268;218;0;NA;NA;NA
BD22-043;black;17.10.2022;15:48:00;OFT_ESC_SOC;right_box;7607;1800;1;MH;BD22-028;BD22-024;15.10.2022;21.10.2022;Solarte_A_Slope;25;4;BD22-044;black_barred;6,43;601,707;1,11424;1;540,049;0;-877,75;896,185;E:\test_videos\OFT\vids_cut\043_OFT.MP4-cut.mov;93,57807154;0,173287714;Marco;1;middle;0,5;2;0,25;to_hand_include;stationary;2;0;2;2;0;2;0;0;0
BD22-043;black;17.10.2022;15:48:00;OFT_ESC_SOC;right_box;7607;1800;1;MH;BD22-028;BD22-024;15.10.2022;21.10.2022;Solarte_A_Slope;25;4;BD22-044;black_barred;6,43;601,707;1,11424;1;540,049;0;-877,75;896,185;E:\test_videos\OFT\vids_cut\043_OFT.MP4-cut.mov;93,57807154;0,173287714;Marco;2;far_side;1,5;3;0,5;to_hand_include;stationary;2;0;2;2;0;2;0;0;0
BD22-043;black;17.10.2022;15:48:00;OFT_ESC_SOC;right_box;7607;1800;1;MH;BD22-028;BD22-024;15.10.2022;21.10.2022;Solarte_A_Slope;25;4;BD22-044;black_barred;6,43;601,707;1,11424;1;540,049;0;-877,75;896,185;E:\test_videos\OFT\vids_cut\043_OFT.MP4-cut.mov;93,57807154;0,173287714;Marco;3;middle;0,7;2;0,35;to_hand_include;stationary;2;0;2;2;0;2;0;0;0
BD22-043;black;17.10.2022;15:48:00;OFT_ESC_SOC;right_box;7607;1800;1;MH;BD22-028;BD22-024;15.10.2022;21.10.2022;Solarte_A_Slope;25;4;BD22-044;black_barred;6,43;601,707;1,11424;1;540,049;0;-877,75;896,185;E:\test_videos\OFT\vids_cut\043_OFT.MP4-cut.mov;93,57807154;0,173287714;Marco;4;close_side;1,5;3;0,5;to_hand_include;stationary;2;0;2;2;0;2;0;0;0
BD22-044;barred;17.10.2022;15:44:00;OFT_ESC_SOC;left_box;0A4F;1800;1;MH;BD22-033;BD22-029;15.10.2022;18.10.2022;Solarte_A_Slope;15 to 25;4;BD22-043;black_barred;6,28;12404,3;22,9702;1;540,049;0;-896,138;957,775;E:\test_videos\OFT\vids_cut\044_OFT.mov-cut.mov;1975,207006;3,657675159;Marco;1;close_side;0,6;3;0,2;to_hand_include;stationary;20;24;64;0;4;34;20;20;30
BD22-044;barred;17.10.2022;15:44:00;OFT_ESC_SOC;left_box;0A4F;1800;1;MH;BD22-033;BD22-029;15.10.2022;18.10.2022;Solarte_A_Slope;15 to 25;4;BD22-043;black_barred;6,28;12404,3;22,9702;1;540,049;0;-896,138;957,775;E:\test_videos\OFT\vids_cut\044_OFT.mov-cut.mov;1975,207006;3,657675159;Marco;2;close_side;0,7;4;0,175;to_hand_include;stationary;20;24;64;0;4;34;20;20;30
BD22-044;barred;17.10.2022;15:44:00;OFT_ESC_SOC;left_box;0A4F;1800;1;MH;BD22-033;BD22-029;15.10.2022;18.10.2022;Solarte_A_Slope;15 to 25;4;BD22-043;black_barred;6,28;12404,3;22,9702;1;540,049;0;-896,138;957,775;E:\test_videos\OFT\vids_cut\044_OFT.mov-cut.mov;1975,207006;3,657675159;Marco;3;middle;1,2;3;0,4;to_hand_include;stationary;20;24;64;0;4;34;20;20;30
BD22-044;barred;17.10.2022;15:44:00;OFT_ESC_SOC;left_box;0A4F;1800;1;MH;BD22-033;BD22-029;15.10.2022;18.10.2022;Solarte_A_Slope;15 to 25;4;BD22-043;black_barred;6,28;12404,3;22,9702;1;540,049;0;-896,138;957,775;E:\test_videos\OFT\vids_cut\044_OFT.mov-cut.mov;1975,207006;3,657675159;Marco;4;middle;0,7;2;0,35;to_hand_include;stationary;20;24;64;0;4;34;20;20;30
BD22-049;black;20.10.2022;14:07:00;OFT_ESC_SOC;left_box;0A4F;1800;1;JG;BD22-039;BD22-043 (first R);18.10.2022;21.10.2022;Lagoon_A;10;1;BD22-050;black_barred;7,07;861,163;1,59469;1;540,052;0;-893,49;908,088;E:\test_videos\OFT\vids_cut\049_OFT.mov-cut.mov;121,8052334;0,225557284;Marco;1;middle;1,2;3;0,4;to_hand_include;stationary;214;64;94;128;36;28;86;28;66
BD22-049;black;20.10.2022;14:07:00;OFT_ESC_SOC;left_box;0A4F;1800;1;JG;BD22-039;BD22-043 (first R);18.10.2022;21.10.2022;Lagoon_A;10;1;BD22-050;black_barred;7,07;861,163;1,59469;1;540,052;0;-893,49;908,088;E:\test_videos\OFT\vids_cut\049_OFT.mov-cut.mov;121,8052334;0,225557284;Marco;2;middle;0,6;2;0,3;to_hand_include;stationary;214;64;94;128;36;28;86;28;66
BD22-049;black;20.10.2022;14:07:00;OFT_ESC_SOC;left_box;0A4F;1800;1;JG;BD22-039;BD22-043 (first R);18.10.2022;21.10.2022;Lagoon_A;10;1;BD22-050;black_barred;7,07;861,163;1,59469;1;540,052;0;-893,49;908,088;E:\test_videos\OFT\vids_cut\049_OFT.mov-cut.mov;121,8052334;0,225557284;Marco;3;far_side;0,5;2;0,25;to_hand_include;stationary;214;64;94;128;36;28;86;28;66
BD22-049;black;20.10.2022;14:07:00;OFT_ESC_SOC;left_box;0A4F;1800;1;JG;BD22-039;BD22-043 (first R);18.10.2022;21.10.2022;Lagoon_A;10;1;BD22-050;black_barred;7,07;861,163;1,59469;1;540,052;0;-893,49;908,088;E:\test_videos\OFT\vids_cut\049_OFT.mov-cut.mov;121,8052334;0,225557284;Marco;4;close_side;1,6;3;0,533333333;to_hand_include;stationary;214;64;94;128;36;28;86;28;66
BD22-050;barred;20.10.2022;14:10:00;OFT_ESC_SOC;right_box;7607;1800;1;JG;BD22-047;BD22-045;18.10.2022;24.10.2022;Lagoon_A;10;1;BD22-049;black_barred;7,33;8586,94;15,9016;1;540,037;0;-901,224;943,501;E:\test_videos\OFT\vids_cut\050_OFT.MP4-cut.mov;1171,478854;2,169386085;Marco;1;far_side;1,7;4;0,425;to_hand_include;stationary;418;48;0;134;48;0;284;0;0
BD22-050;barred;20.10.2022;14:10:00;OFT_ESC_SOC;right_box;7607;1800;1;JG;BD22-047;BD22-045;18.10.2022;24.10.2022;Lagoon_A;10;1;BD22-049;black_barred;7,33;8586,94;15,9016;1;540,037;0;-901,224;943,501;E:\test_videos\OFT\vids_cut\050_OFT.MP4-cut.mov;1171,478854;2,169386085;Marco;2;far_side;0,7;2;0,35;to_hand_include;stationary;418;48;0;134;48;0;284;0;0
BD22-050;barred;20.10.2022;14:10:00;OFT_ESC_SOC;right_box;7607;1800;1;JG;BD22-047;BD22-045;18.10.2022;24.10.2022;Lagoon_A;10;1;BD22-049;black_barred;7,33;8586,94;15,9016;1;540,037;0;-901,224;943,501;E:\test_videos\OFT\vids_cut\050_OFT.MP4-cut.mov;1171,478854;2,169386085;Marco;3;close_side;1;2;0,5;to_hand_include;stationary;418;48;0;134;48;0;284;0;0
BD22-050;barred;20.10.2022;14:10:00;OFT_ESC_SOC;right_box;7607;1800;1;JG;BD22-047;BD22-045;18.10.2022;24.10.2022;Lagoon_A;10;1;BD22-049;black_barred;7,33;8586,94;15,9016;1;540,037;0;-901,224;943,501;E:\test_videos\OFT\vids_cut\050_OFT.MP4-cut.mov;1171,478854;2,169386085;Marco;4;far_side;1,5;4;0,375;to_hand_include;stationary;418;48;0;134;48;0;284;0;0
BD22-051;barred;20.10.2022;11:47:00;OFT_ESC_SOC;left_box;0A4F;1800;1;JG;BD22-047;BD22-045;18.10.2022;21.10.2022;Lagoon_A;10;H2;BD22-052;barred_barred;8,17;51,5781;0,0955123;1;540,049;0;-636,789;636,789;E:\test_videos\OFT\vids_cut\051_OFT.mov-cut.mov;6,313108935;0,011690612;Jakob;1;far_side;0,67;3;0,223333333;to_hand_include;stationary;6;0;24;6;0;24;0;0;0
BD22-051;barred;20.10.2022;11:47:00;OFT_ESC_SOC;left_box;0A4F;1800;1;JG;BD22-047;BD22-045;18.10.2022;21.10.2022;Lagoon_A;10;H2;BD22-052;barred_barred;8,17;51,5781;0,0955123;1;540,049;0;-636,789;636,789;E:\test_videos\OFT\vids_cut\051_OFT.mov-cut.mov;6,313108935;0,011690612;Jakob;2;close_side;0,57;2;0,285;to_hand_include;stationary;6;0;24;6;0;24;0;0;0
BD22-051;barred;20.10.2022;11:47:00;OFT_ESC_SOC;left_box;0A4F;1800;1;JG;BD22-047;BD22-045;18.10.2022;21.10.2022;Lagoon_A;10;H2;BD22-052;barred_barred;8,17;51,5781;0,0955123;1;540,049;0;-636,789;636,789;E:\test_videos\OFT\vids_cut\051_OFT.mov-cut.mov;6,313108935;0,011690612;Jakob;3;middle;0,67;3;0,223333333;to_hand_include;stationary;6;0;24;6;0;24;0;0;0
BD22-051;barred;20.10.2022;11:47:00;OFT_ESC_SOC;left_box;0A4F;1800;1;JG;BD22-047;BD22-045;18.10.2022;21.10.2022;Lagoon_A;10;H2;BD22-052;barred_barred;8,17;51,5781;0,0955123;1;540,049;0;-636,789;636,789;E:\test_videos\OFT\vids_cut\051_OFT.mov-cut.mov;6,313108935;0,011690612;Jakob;4;far_side;0,43;2;0,215;to_hand_include;stationary;6;0;24;6;0;24;0;0;0
BD22-052;barred;20.10.2022;11:51:00;OFT_ESC_SOC;right_box;7607;1800;1;JG;BD22-039 (first R);BD22-043;18.10.2022;21.10.2022;Lagoon_A;10;H2;BD22-051;barred_barred;7,91;687,994;1,27403;1;540,049;0;-889,28;889,28;E:\test_videos\OFT\vids_cut\052_OFT.MP4-cut.mov;86,97774968;0,16106574;Marco;1;far_side;0,6;2;0,3;to_hand_include;stationary;76;46;74;38;22;72;38;24;2
BD22-052;barred;20.10.2022;11:51:00;OFT_ESC_SOC;right_box;7607;1800;1;JG;BD22-039 (first R);BD22-043;18.10.2022;21.10.2022;Lagoon_A;10;H2;BD22-051;barred_barred;7,91;687,994;1,27403;1;540,049;0;-889,28;889,28;E:\test_videos\OFT\vids_cut\052_OFT.MP4-cut.mov;86,97774968;0,16106574;Marco;2;close_side;0,6;2;0,3;to_hand_include;stationary;76;46;74;38;22;72;38;24;2
BD22-052;barred;20.10.2022;11:51:00;OFT_ESC_SOC;right_box;7607;1800;1;JG;BD22-039 (first R);BD22-043;18.10.2022;21.10.2022;Lagoon_A;10;H2;BD22-051;barred_barred;7,91;687,994;1,27403;1;540,049;0;-889,28;889,28;E:\test_videos\OFT\vids_cut\052_OFT.MP4-cut.mov;86,97774968;0,16106574;Marco;3;far_side;0,4;2;0,2;to_hand_include;stationary;76;46;74;38;22;72;38;24;2
BD22-052;barred;20.10.2022;11:51:00;OFT_ESC_SOC;right_box;7607;1800;1;JG;BD22-039 (first R);BD22-043;18.10.2022;21.10.2022;Lagoon_A;10;H2;BD22-051;barred_barred;7,91;687,994;1,27403;1;540,049;0;-889,28;889,28;E:\test_videos\OFT\vids_cut\052_OFT.MP4-cut.mov;86,97774968;0,16106574;Marco;4;close_side;0,7;2;0,35;to_hand_include;stationary;76;46;74;38;22;72;38;24;2
BD22-053;black;20.10.2022;09:24:00;OFT_ESC_SOC;left_box;0A4F;1800;1;JG;BD22-039;BD22-043;18.10.2022;21.10.2022;Lagoon_A;10;2;BD22-054;black_black;7,41;4853,69;8,98805;1;540,049;0;-899,284;969,205;E:\test_videos\OFT\vids_cut\053_OFT.mov-cut.mov;655,0188934;1,212962213;Jakob;1;far_side;1,92;5;0,384;to_hand_include;stationary;126;76;42;70;38;2;56;38;40
BD22-053;black;20.10.2022;09:24:00;OFT_ESC_SOC;left_box;0A4F;1800;1;JG;BD22-039;BD22-043;18.10.2022;21.10.2022;Lagoon_A;10;2;BD22-054;black_black;7,41;4853,69;8,98805;1;540,049;0;-899,284;969,205;E:\test_videos\OFT\vids_cut\053_OFT.mov-cut.mov;655,0188934;1,212962213;Jakob;2;middle;2,2;5;0,44;to_hand_include;stationary;126;76;42;70;38;2;56;38;40
BD22-053;black;20.10.2022;09:24:00;OFT_ESC_SOC;left_box;0A4F;1800;1;JG;BD22-039;BD22-043;18.10.2022;21.10.2022;Lagoon_A;10;2;BD22-054;black_black;7,41;4853,69;8,98805;1;540,049;0;-899,284;969,205;E:\test_videos\OFT\vids_cut\053_OFT.mov-cut.mov;655,0188934;1,212962213;Jakob;3;close_side;1,36;2;0,68;to_hand_include;stationary;126;76;42;70;38;2;56;38;40
BD22-053;black;20.10.2022;09:24:00;OFT_ESC_SOC;left_box;0A4F;1800;1;JG;BD22-039;BD22-043;18.10.2022;21.10.2022;Lagoon_A;10;2;BD22-054;black_black;7,41;4853,69;8,98805;1;540,049;0;-899,284;969,205;E:\test_videos\OFT\vids_cut\053_OFT.mov-cut.mov;655,0188934;1,212962213;Jakob;4;close_side;1,73;3;0,576666667;to_hand_include;stationary;126;76;42;70;38;2;56;38;40
BD22-054;black;20.10.2022;09:27:00;OFT_ESC_SOC;right_box;7607;1800;1;JG;BD22-047;BD22-045;18.10.2022;21.10.2022;Lagoon_A;10;2;BD22-053;black_black;7,76;2597,39;4,80981;1;540,052;0;-897,856;981,504;E:\test_videos\OFT\vids_cut\054_OFT.MP4-cut.mov;334,7152062;0,619820876;Jakob;1;middle;0,6;2;0,3;to_hand_include;stationary;246;116;20;146;98;12;100;18;8
BD22-054;black;20.10.2022;09:27:00;OFT_ESC_SOC;right_box;7607;1800;1;JG;BD22-047;BD22-045;18.10.2022;21.10.2022;Lagoon_A;10;2;BD22-053;black_black;7,76;2597,39;4,80981;1;540,052;0;-897,856;981,504;E:\test_videos\OFT\vids_cut\054_OFT.MP4-cut.mov;334,7152062;0,619820876;Jakob;2;far_side;1,1;3;0,366666667;to_hand_include;stationary;246;116;20;146;98;12;100;18;8
BD22-054;black;20.10.2022;09:27:00;OFT_ESC_SOC;right_box;7607;1800;1;JG;BD22-047;BD22-045;18.10.2022;21.10.2022;Lagoon_A;10;2;BD22-053;black_black;7,76;2597,39;4,80981;1;540,052;0;-897,856;981,504;E:\test_videos\OFT\vids_cut\054_OFT.MP4-cut.mov;334,7152062;0,619820876;Jakob;3;far_side;0,8;2;0,4;to_hand_include;stationary;246;116;20;146;98;12;100;18;8
BD22-054;black;20.10.2022;09:27:00;OFT_ESC_SOC;right_box;7607;1800;1;JG;BD22-047;BD22-045;18.10.2022;21.10.2022;Lagoon_A;10;2;BD22-053;black_black;7,76;2597,39;4,80981;1;540,052;0;-897,856;981,504;E:\test_videos\OFT\vids_cut\054_OFT.MP4-cut.mov;334,7152062;0,619820876;Jakob;4;close_side;0,5;2;0,25;to_hand_include;stationary;246;116;20;146;98;12;100;18;8
BD22-055;black;20.10.2022;11:01:00;OFT_ESC_SOC;left_box;0A4F;1800;1;JG;BD22-039;BD22-043 (first R);18.10.2022;21.10.2022;Lagoon_A;10;3;BD22-056;black_barred;7,4;8189,69;15,1657;1;540,049;0;-896,282;992,516;E:\test_videos\OFT\vids_cut\055_OFT.mov-cut.mov;1106,714865;2,049418919;Jakob;1;middle;1,23;2;0,615;to_hand_include;stationary;196;104;34;186;22;20;10;82;14
BD22-055;black;20.10.2022;11:01:00;OFT_ESC_SOC;left_box;0A4F;1800;1;JG;BD22-039;BD22-043 (first R);18.10.2022;21.10.2022;Lagoon_A;10;3;BD22-056;black_barred;7,4;8189,69;15,1657;1;540,049;0;-896,282;992,516;E:\test_videos\OFT\vids_cut\055_OFT.mov-cut.mov;1106,714865;2,049418919;Jakob;2;close_side;1,47;3;0,49;to_hand_include;swimming;196;104;34;186;22;20;10;82;14
BD22-055;black;20.10.2022;11:01:00;OFT_ESC_SOC;left_box;0A4F;1800;1;JG;BD22-039;BD22-043 (first R);18.10.2022;21.10.2022;Lagoon_A;10;3;BD22-056;black_barred;7,4;8189,69;15,1657;1;540,049;0;-896,282;992,516;E:\test_videos\OFT\vids_cut\055_OFT.mov-cut.mov;1106,714865;2,049418919;Jakob;3;close_side;0,33;1;0,33;to_hand_include;swimming;196;104;34;186;22;20;10;82;14
BD22-055;black;20.10.2022;11:01:00;OFT_ESC_SOC;left_box;0A4F;1800;1;JG;BD22-039;BD22-043 (first R);18.10.2022;21.10.2022;Lagoon_A;10;3;BD22-056;black_barred;7,4;8189,69;15,1657;1;540,049;0;-896,282;992,516;E:\test_videos\OFT\vids_cut\055_OFT.mov-cut.mov;1106,714865;2,049418919;Jakob;4;middle;0,77;2;0,385;to_hand_include;swimming;196;104;34;186;22;20;10;82;14
BD22-056;barred;20.10.2022;11:04:00;OFT_ESC_SOC;right_box;7607;1800;1;JG;BD22-047;BD22-045;18.10.2022;21.10.2022;Lagoon_A;10;3;BD22-055;black_barred;7,65;16,5706;0,0306855;1;540,049;0;-521,115;521,115;E:\test_videos\OFT\vids_cut\056_OFT.MP4-cut.mov;2,166091503;0,004011176;Marco;1;close_side;0,7;3;0,233333333;to_hand_include;stationary;32;28;6;32;28;6;0;0;0
BD22-056;barred;20.10.2022;11:04:00;OFT_ESC_SOC;right_box;7607;1800;1;JG;BD22-047;BD22-045;18.10.2022;21.10.2022;Lagoon_A;10;3;BD22-055;black_barred;7,65;16,5706;0,0306855;1;540,049;0;-521,115;521,115;E:\test_videos\OFT\vids_cut\056_OFT.MP4-cut.mov;2,166091503;0,004011176;Marco;2;far_side;0,8;3;0,266666667;to_hand_include;stationary;32;28;6;32;28;6;0;0;0
BD22-056;barred;20.10.2022;11:04:00;OFT_ESC_SOC;right_box;7607;1800;1;JG;BD22-047;BD22-045;18.10.2022;21.10.2022;Lagoon_A;10;3;BD22-055;black_barred;7,65;16,5706;0,0306855;1;540,049;0;-521,115;521,115;E:\test_videos\OFT\vids_cut\056_OFT.MP4-cut.mov;2,166091503;0,004011176;Marco;3;far_side;0,5;2;0,25;to_hand_include;stationary;32;28;6;32;28;6;0;0;0
BD22-056;barred;20.10.2022;11:04:00;OFT_ESC_SOC;right_box;7607;1800;1;JG;BD22-047;BD22-045;18.10.2022;21.10.2022;Lagoon_A;10;3;BD22-055;black_barred;7,65;16,5706;0,0306855;1;540,049;0;-521,115;521,115;E:\test_videos\OFT\vids_cut\056_OFT.MP4-cut.mov;2,166091503;0,004011176;Marco;4;middle;0,9;3;0,3;to_hand_include;stationary;32;28;6;32;28;6;0;0;0
BD22-057;black;20.10.2022;10:08:00;OFT_ESC_SOC;left_box;0A4F;1800;1;JG;BD22-047;BD22-045;18.10.2022;24.10.2022;Lagoon_A;10;4;BD22-058;black_black;7,01;490,905;0,909058;1;540,049;0;-894,154;909,021;E:\test_videos\OFT\vids_cut\057_OFT.mov-cut.mov;70,02924394;0,129680171;Mel;1;far_side;0,52;2;0,26;to_hand_include;stationary;82;68;4;76;46;0;6;22;4
BD22-057;black;20.10.2022;10:08:00;OFT_ESC_SOC;left_box;0A4F;1800;1;JG;BD22-047;BD22-045;18.10.2022;24.10.2022;Lagoon_A;10;4;BD22-058;black_black;7,01;490,905;0,909058;1;540,049;0;-894,154;909,021;E:\test_videos\OFT\vids_cut\057_OFT.mov-cut.mov;70,02924394;0,129680171;Mel;2;close_side;0,6;2;0,3;to_hand_include;stationary;82;68;4;76;46;0;6;22;4
BD22-057;black;20.10.2022;10:08:00;OFT_ESC_SOC;left_box;0A4F;1800;1;JG;BD22-047;BD22-045;18.10.2022;24.10.2022;Lagoon_A;10;4;BD22-058;black_black;7,01;490,905;0,909058;1;540,049;0;-894,154;909,021;E:\test_videos\OFT\vids_cut\057_OFT.mov-cut.mov;70,02924394;0,129680171;Mel;3;far_side;0,44;3;0,146666667;to_hand_include;stationary;82;68;4;76;46;0;6;22;4
BD22-057;black;20.10.2022;10:08:00;OFT_ESC_SOC;left_box;0A4F;1800;1;JG;BD22-047;BD22-045;18.10.2022;24.10.2022;Lagoon_A;10;4;BD22-058;black_black;7,01;490,905;0,909058;1;540,049;0;-894,154;909,021;E:\test_videos\OFT\vids_cut\057_OFT.mov-cut.mov;70,02924394;0,129680171;Mel;4;middle;0,76;3;0,253333333;to_hand_include;stationary;82;68;4;76;46;0;6;22;4
BD22-058;black;20.10.2022;10:11:00;OFT_ESC_SOC;right_box;7607;1800;1;JG;BD22-039;BD22-043;18.10.2022;27.10.2022;Lagoon_A;10;4;BD22-057;black_black;7,1;628,049;1,16302;1;540,049;0;-893,466;904,534;E:\test_videos\OFT\vids_cut\058_OFT.MP4-cut.mov;88,45760563;0,163805634;Mel;1;far_side;0,32;2;0,16;to_hand_include;stationary;54;54;14;16;32;6;38;22;8
BD22-058;black;20.10.2022;10:11:00;OFT_ESC_SOC;right_box;7607;1800;1;JG;BD22-039;BD22-043;18.10.2022;27.10.2022;Lagoon_A;10;4;BD22-057;black_black;7,1;628,049;1,16302;1;540,049;0;-893,466;904,534;E:\test_videos\OFT\vids_cut\058_OFT.MP4-cut.mov;88,45760563;0,163805634;Mel;2;far_side;0,48;2;0,24;to_hand_include;stationary;54;54;14;16;32;6;38;22;8
BD22-058;black;20.10.2022;10:11:00;OFT_ESC_SOC;right_box;7607;1800;1;JG;BD22-039;BD22-043;18.10.2022;27.10.2022;Lagoon_A;10;4;BD22-057;black_black;7,1;628,049;1,16302;1;540,049;0;-893,466;904,534;E:\test_videos\OFT\vids_cut\058_OFT.MP4-cut.mov;88,45760563;0,163805634;Mel;3;middle;0,48;2;0,24;to_hand_include;stationary;54;54;14;16;32;6;38;22;8
BD22-058;black;20.10.2022;10:11:00;OFT_ESC_SOC;right_box;7607;1800;1;JG;BD22-039;BD22-043;18.10.2022;27.10.2022;Lagoon_A;10;4;BD22-057;black_black;7,1;628,049;1,16302;1;540,049;0;-893,466;904,534;E:\test_videos\OFT\vids_cut\058_OFT.MP4-cut.mov;88,45760563;0,163805634;Mel;4;far_side;0,56;3;0,186666667;to_hand_include;stationary;54;54;14;16;32;6;38;22;8
BD22-059;barred;20.10.2022;14:51:00;OFT_ESC_SOC;left_box;0A4F;1800;1;JG;BD22-047;BD22-045;18.10.2022;21.10.2022;Lagoon_A;10;5;BD22-060;barred_barred;7,57;260,223;0,48188;1;540,049;0;-882,816;918,457;E:\test_videos\OFT\vids_cut\059_OFT.mov-cut.mov;34,37556143;0,063656539;Mel;1;close_side;0,64;2;0,32;to_hand_include;stationary;48;72;76;20;46;52;28;26;24
BD22-059;barred;20.10.2022;14:51:00;OFT_ESC_SOC;left_box;0A4F;1800;1;JG;BD22-047;BD22-045;18.10.2022;21.10.2022;Lagoon_A;10;5;BD22-060;barred_barred;7,57;260,223;0,48188;1;540,049;0;-882,816;918,457;E:\test_videos\OFT\vids_cut\059_OFT.mov-cut.mov;34,37556143;0,063656539;Mel;2;far_side;0,72;3;0,24;to_hand_include;stationary;48;72;76;20;46;52;28;26;24
BD22-059;barred;20.10.2022;14:51:00;OFT_ESC_SOC;left_box;0A4F;1800;1;JG;BD22-047;BD22-045;18.10.2022;21.10.2022;Lagoon_A;10;5;BD22-060;barred_barred;7,57;260,223;0,48188;1;540,049;0;-882,816;918,457;E:\test_videos\OFT\vids_cut\059_OFT.mov-cut.mov;34,37556143;0,063656539;Mel;3;close_side;0,88;3;0,293333333;to_hand_include;stationary;48;72;76;20;46;52;28;26;24
BD22-059;barred;20.10.2022;14:51:00;OFT_ESC_SOC;left_box;0A4F;1800;1;JG;BD22-047;BD22-045;18.10.2022;21.10.2022;Lagoon_A;10;5;BD22-060;barred_barred;7,57;260,223;0,48188;1;540,049;0;-882,816;918,457;E:\test_videos\OFT\vids_cut\059_OFT.mov-cut.mov;34,37556143;0,063656539;Mel;4;middle;0,68;3;0,226666667;to_hand_include;stationary;48;72;76;20;46;52;28;26;24
BD22-060;barred;20.10.2022;14:55:00;OFT_ESC_SOC;right_box;7607;1800;1;JG;BD22-039 (first top);BD22-043;18.10.2022;24.10.2022;Lagoon_A;10;5;BD22-059;barred_barred;6,7;2450,89;4,53845;1;540,061;0;-899,709;959,938;E:\test_videos\OFT\vids_cut\060_OFT.MP4-cut.mov;365,8044776;0,677380597;Jakob;1;far_side;1,1;5;0,22;to_hand_include;stationary;110;178;36;80;152;10;30;26;26
BD22-060;barred;20.10.2022;14:55:00;OFT_ESC_SOC;right_box;7607;1800;1;JG;BD22-039 (first top);BD22-043;18.10.2022;24.10.2022;Lagoon_A;10;5;BD22-059;barred_barred;6,7;2450,89;4,53845;1;540,061;0;-899,709;959,938;E:\test_videos\OFT\vids_cut\060_OFT.MP4-cut.mov;365,8044776;0,677380597;Jakob;2;middle;0,5;2;0,25;to_hand_include;stationary;110;178;36;80;152;10;30;26;26
BD22-060;barred;20.10.2022;14:55:00;OFT_ESC_SOC;right_box;7607;1800;1;JG;BD22-039 (first top);BD22-043;18.10.2022;24.10.2022;Lagoon_A;10;5;BD22-059;barred_barred;6,7;2450,89;4,53845;1;540,061;0;-899,709;959,938;E:\test_videos\OFT\vids_cut\060_OFT.MP4-cut.mov;365,8044776;0,677380597;Jakob;3;far_side;1,6;4;0,4;to_hand_include;stationary;110;178;36;80;152;10;30;26;26
BD22-060;barred;20.10.2022;14:55:00;OFT_ESC_SOC;right_box;7607;1800;1;JG;BD22-039 (first top);BD22-043;18.10.2022;24.10.2022;Lagoon_A;10;5;BD22-059;barred_barred;6,7;2450,89;4,53845;1;540,061;0;-899,709;959,938;E:\test_videos\OFT\vids_cut\060_OFT.MP4-cut.mov;365,8044776;0,677380597;Jakob;4;middle;0,6;3;0,2;to_hand_include;stationary;110;178;36;80;152;10;30;26;26
BD22-061;black;20.10.2022;15:47:00;OFT_ESC_SOC;right_box;7607;1800;1;JG;BD22-047;BD22-045;18.10.2022;21.10.2022;Lagoon_A;10;6;BD22-062;black_barred;6,67;3583,15;6,63527;1;540,049;0;-895,782;916,949;E:\test_videos\OFT\vids_cut\061_OFT.MP4-cut.mov;537,2038981;0,994793103;Mel;1;middle;1,04;3;0,346666667;to_hand_include;stationary;134;146;0;98;100;0;36;46;0
BD22-061;black;20.10.2022;15:47:00;OFT_ESC_SOC;right_box;7607;1800;1;JG;BD22-047;BD22-045;18.10.2022;21.10.2022;Lagoon_A;10;6;BD22-062;black_barred;6,67;3583,15;6,63527;1;540,049;0;-895,782;916,949;E:\test_videos\OFT\vids_cut\061_OFT.MP4-cut.mov;537,2038981;0,994793103;Mel;2;middle;0,84;2;0,42;to_hand_include;stationary;134;146;0;98;100;0;36;46;0
BD22-061;black;20.10.2022;15:47:00;OFT_ESC_SOC;right_box;7607;1800;1;JG;BD22-047;BD22-045;18.10.2022;21.10.2022;Lagoon_A;10;6;BD22-062;black_barred;6,67;3583,15;6,63527;1;540,049;0;-895,782;916,949;E:\test_videos\OFT\vids_cut\061_OFT.MP4-cut.mov;537,2038981;0,994793103;Mel;3;far_side;0,68;2;0,34;to_hand_include;stationary;134;146;0;98;100;0;36;46;0
BD22-061;black;20.10.2022;15:47:00;OFT_ESC_SOC;right_box;7607;1800;1;JG;BD22-047;BD22-045;18.10.2022;21.10.2022;Lagoon_A;10;6;BD22-062;black_barred;6,67;3583,15;6,63527;1;540,049;0;-895,782;916,949;E:\test_videos\OFT\vids_cut\061_OFT.MP4-cut.mov;537,2038981;0,994793103;Mel;4;far_side;1,08;2;0,54;to_hand_include;stationary;134;146;0;98;100;0;36;46;0
BD22-062;barred;20.10.2022;15:44:00;OFT_ESC_SOC;left_box;0A4F;1800;1;JG;BD22-039;BD22-043 (first bottom L);18.10.2022;21.10.2022;Lagoon_A;10;6;BD22-061;black_barred;6,47;371,307;0,687586;1;540,049;0;-766,97;766,97;E:\test_videos\OFT\vids_cut\062_OFT.mov-cut.mov;57,38902628;0,106272952;Mel;1;far_side;0,72;2;0,36;to_hand_include;stationary;384;122;0;244;0;0;140;122;0
BD22-062;barred;20.10.2022;15:44:00;OFT_ESC_SOC;left_box;0A4F;1800;1;JG;BD22-039;BD22-043 (first bottom L);18.10.2022;21.10.2022;Lagoon_A;10;6;BD22-061;black_barred;6,47;371,307;0,687586;1;540,049;0;-766,97;766,97;E:\test_videos\OFT\vids_cut\062_OFT.mov-cut.mov;57,38902628;0,106272952;Mel;2;far_side;0,52;2;0,26;to_hand_include;stationary;384;122;0;244;0;0;140;122;0
BD22-062;barred;20.10.2022;15:44:00;OFT_ESC_SOC;left_box;0A4F;1800;1;JG;BD22-039;BD22-043 (first bottom L);18.10.2022;21.10.2022;Lagoon_A;10;6;BD22-061;black_barred;6,47;371,307;0,687586;1;540,049;0;-766,97;766,97;E:\test_videos\OFT\vids_cut\062_OFT.mov-cut.mov;57,38902628;0,106272952;Mel;3;far_side;0,6;2;0,3;to_hand_include;stationary;384;122;0;244;0;0;140;122;0
BD22-062;barred;20.10.2022;15:44:00;OFT_ESC_SOC;left_box;0A4F;1800;1;JG;BD22-039;BD22-043 (first bottom L);18.10.2022;21.10.2022;Lagoon_A;10;6;BD22-061;black_barred;6,47;371,307;0,687586;1;540,049;0;-766,97;766,97;E:\test_videos\OFT\vids_cut\062_OFT.mov-cut.mov;57,38902628;0,106272952;Mel;4;far_side;1;4;0,25;to_hand_include;stationary;384;122;0;244;0;0;140;122;0
BD22-063;barred;23.10.2022;09:54:00;OFT_ESC_SOC;left_box;0A4F;1800;1;MH;BD22-060;BD22-057 (first top left);21.10.2022;24.10.2022;Bastimentos_A2;10 to 15;1;BD22-064;barred_barred;7,42;496,559;0,919527;1;540,049;0;-650,849;650,849;E:\test_videos\OFT\vids_cut\063_OFT.mov-cut.mov;66,92169811;0,123925472;Marco;1;close_side;0,5;2;0,25;to_hand_include;stationary;54;80;18;28;66;10;26;14;8
BD22-063;barred;23.10.2022;09:54:00;OFT_ESC_SOC;left_box;0A4F;1800;1;MH;BD22-060;BD22-057 (first top left);21.10.2022;24.10.2022;Bastimentos_A2;10 to 15;1;BD22-064;barred_barred;7,42;496,559;0,919527;1;540,049;0;-650,849;650,849;E:\test_videos\OFT\vids_cut\063_OFT.mov-cut.mov;66,92169811;0,123925472;Marco;2;far_side;1,7;3;0,566666667;to_hand_include;stationary;54;80;18;28;66;10;26;14;8
BD22-063;barred;23.10.2022;09:54:00;OFT_ESC_SOC;left_box;0A4F;1800;1;MH;BD22-060;BD22-057 (first top left);21.10.2022;24.10.2022;Bastimentos_A2;10 to 15;1;BD22-064;barred_barred;7,42;496,559;0,919527;1;540,049;0;-650,849;650,849;E:\test_videos\OFT\vids_cut\063_OFT.mov-cut.mov;66,92169811;0,123925472;Marco;3;far_side;0,7;2;0,35;to_hand_include;stationary;54;80;18;28;66;10;26;14;8
BD22-063;barred;23.10.2022;09:54:00;OFT_ESC_SOC;left_box;0A4F;1800;1;MH;BD22-060;BD22-057 (first top left);21.10.2022;24.10.2022;Bastimentos_A2;10 to 15;1;BD22-064;barred_barred;7,42;496,559;0,919527;1;540,049;0;-650,849;650,849;E:\test_videos\OFT\vids_cut\063_OFT.mov-cut.mov;66,92169811;0,123925472;Marco;4;close_side;0,9;3;0,3;to_hand_include;stationary;54;80;18;28;66;10;26;14;8
BD22-064;barred;23.10.2022;09:58:00;OFT_ESC_SOC;right_box;7607;1800;1;MH;BD22-050;BD22-058 (pointed at while shanging);21.10.2022;24.10.2022;Bastimentos_A2;10 to 15;1;BD22-063;barred_barred;8,24;105,842;0,195998;1;540,049;0;-597,316;597,316;E:\test_videos\OFT\vids_cut\064_OFT.MP4-cut.mov;12,84490291;0,023786165;Mel;1;middle;0,56;2;0,28;to_hand_include;stationary;72;30;52;72;30;52;0;0;0
BD22-064;barred;23.10.2022;09:58:00;OFT_ESC_SOC;right_box;7607;1800;1;MH;BD22-050;BD22-058 (pointed at while shanging);21.10.2022;24.10.2022;Bastimentos_A2;10 to 15;1;BD22-063;barred_barred;8,24;105,842;0,195998;1;540,049;0;-597,316;597,316;E:\test_videos\OFT\vids_cut\064_OFT.MP4-cut.mov;12,84490291;0,023786165;Mel;2;far_side;0,4;2;0,2;to_hand_include;stationary;72;30;52;72;30;52;0;0;0
BD22-064;barred;23.10.2022;09:58:00;OFT_ESC_SOC;right_box;7607;1800;1;MH;BD22-050;BD22-058 (pointed at while shanging);21.10.2022;24.10.2022;Bastimentos_A2;10 to 15;1;BD22-063;barred_barred;8,24;105,842;0,195998;1;540,049;0;-597,316;597,316;E:\test_videos\OFT\vids_cut\064_OFT.MP4-cut.mov;12,84490291;0,023786165;Mel;3;close_side;0,56;2;0,28;to_hand_include;stationary;72;30;52;72;30;52;0;0;0
BD22-064;barred;23.10.2022;09:58:00;OFT_ESC_SOC;right_box;7607;1800;1;MH;BD22-050;BD22-058 (pointed at while shanging);21.10.2022;24.10.2022;Bastimentos_A2;10 to 15;1;BD22-063;barred_barred;8,24;105,842;0,195998;1;540,049;0;-597,316;597,316;E:\test_videos\OFT\vids_cut\064_OFT.MP4-cut.mov;12,84490291;0,023786165;Mel;4;close_side;0,48;2;0,24;to_hand_include;stationary;72;30;52;72;30;52;0;0;0
BD22-065;barred;23.10.2022;12:14:00;OFT_ESC_SOC;left_box;0A4F;1800;1;MH;BD22-060;BD22-057;21.10.2022;27.10.2022;Bastimentos_A2;10 to 15;H2;BD22-066;barred_barred;6,76;78,9286;0,14616;1;540,049;0;-671,419;671,419;E:\test_videos\OFT\vids_cut\065_OFT.mov-cut.mov;11,6758284;0,021621302;Mel;1;middle;0,6;2;0,3;to_hand_include;stationary;6;396;0;6;102;0;0;294;0
BD22-065;barred;23.10.2022;12:14:00;OFT_ESC_SOC;left_box;0A4F;1800;1;MH;BD22-060;BD22-057;21.10.2022;27.10.2022;Bastimentos_A2;10 to 15;H2;BD22-066;barred_barred;6,76;78,9286;0,14616;1;540,049;0;-671,419;671,419;E:\test_videos\OFT\vids_cut\065_OFT.mov-cut.mov;11,6758284;0,021621302;Mel;2;middle;1,92;4;0,48;to_hand_include;stationary;6;396;0;6;102;0;0;294;0
BD22-065;barred;23.10.2022;12:14:00;OFT_ESC_SOC;left_box;0A4F;1800;1;MH;BD22-060;BD22-057;21.10.2022;27.10.2022;Bastimentos_A2;10 to 15;H2;BD22-066;barred_barred;6,76;78,9286;0,14616;1;540,049;0;-671,419;671,419;E:\test_videos\OFT\vids_cut\065_OFT.mov-cut.mov;11,6758284;0,021621302;Mel;3;far_side;0,76;2;0,38;to_hand_include;stationary;6;396;0;6;102;0;0;294;0
BD22-065;barred;23.10.2022;12:14:00;OFT_ESC_SOC;left_box;0A4F;1800;1;MH;BD22-060;BD22-057;21.10.2022;27.10.2022;Bastimentos_A2;10 to 15;H2;BD22-066;barred_barred;6,76;78,9286;0,14616;1;540,049;0;-671,419;671,419;E:\test_videos\OFT\vids_cut\065_OFT.mov-cut.mov;11,6758284;0,021621302;Mel;4;middle;1,08;3;0,36;to_hand_include;stationary;6;396;0;6;102;0;0;294;0
BD22-066;barred;23.10.2022;12:28:00;OFT_ESC_SOC;right_box;7607;1800;1;MH;BD22-050;BD22-058;21.10.2022;24.10.2022;Bastimentos_A2;10 to 15;H2;BD22-065;barred_barred;6,81;834,769;1,54582;1;540,049;0;-872,499;985,309;E:\test_videos\OFT\vids_cut\066_OFT.MP4-cut.mov;122,5798825;0,226992658;Marco;1;middle;0,4;2;0,2;to_hand_include;stationary;490;52;0;238;40;0;252;12;0
BD22-066;barred;23.10.2022;12:28:00;OFT_ESC_SOC;right_box;7607;1800;1;MH;BD22-050;BD22-058;21.10.2022;24.10.2022;Bastimentos_A2;10 to 15;H2;BD22-065;barred_barred;6,81;834,769;1,54582;1;540,049;0;-872,499;985,309;E:\test_videos\OFT\vids_cut\066_OFT.MP4-cut.mov;122,5798825;0,226992658;Marco;2;far_side;0,5;2;0,25;to_hand_include;stationary;490;52;0;238;40;0;252;12;0
BD22-066;barred;23.10.2022;12:28:00;OFT_ESC_SOC;right_box;7607;1800;1;MH;BD22-050;BD22-058;21.10.2022;24.10.2022;Bastimentos_A2;10 to 15;H2;BD22-065;barred_barred;6,81;834,769;1,54582;1;540,049;0;-872,499;985,309;E:\test_videos\OFT\vids_cut\066_OFT.MP4-cut.mov;122,5798825;0,226992658;Marco;3;middle;0,6;2;0,3;to_hand_include;stationary;490;52;0;238;40;0;252;12;0
BD22-066;barred;23.10.2022;12:28:00;OFT_ESC_SOC;right_box;7607;1800;1;MH;BD22-050;BD22-058;21.10.2022;24.10.2022;Bastimentos_A2;10 to 15;H2;BD22-065;barred_barred;6,81;834,769;1,54582;1;540,049;0;-872,499;985,309;E:\test_videos\OFT\vids_cut\066_OFT.MP4-cut.mov;122,5798825;0,226992658;Marco;4;far_side;0,4;2;0,2;to_hand_include;stationary;490;52;0;238;40;0;252;12;0
BD22-067;barred;23.10.2022;14:25:00;OFT_ESC_SOC;right_box;7607;1800;1;MH;BD22-050;BD22-058;21.10.2022;27.10.2022;Bastimentos_A2;10 to 15;2;BD22-068;black_barred;7,39;2699,92;4,99971;1;540,049;0;-899,814;930,217;E:\test_videos\OFT\vids_cut\067_OFT.MP4-cut.mov;365,3477673;0,676550744;Mel;3;close_side;1,04;3;0,346666667;to_curtain_exclude;stationary;106;86;46;72;58;32;28;34;14
BD22-067;barred;23.10.2022;14:25:00;OFT_ESC_SOC;right_box;7607;1800;1;MH;BD22-050;BD22-058;21.10.2022;27.10.2022;Bastimentos_A2;10 to 15;2;BD22-068;black_barred;7,39;2699,92;4,99971;1;540,049;0;-899,814;930,217;E:\test_videos\OFT\vids_cut\067_OFT.MP4-cut.mov;365,3477673;0,676550744;Mel;1;close_side;1,24;5;0,248;to_hand_include;stationary;106;86;46;72;58;32;28;34;14
BD22-067;barred;23.10.2022;14:25:00;OFT_ESC_SOC;right_box;7607;1800;1;MH;BD22-050;BD22-058;21.10.2022;27.10.2022;Bastimentos_A2;10 to 15;2;BD22-068;black_barred;7,39;2699,92;4,99971;1;540,049;0;-899,814;930,217;E:\test_videos\OFT\vids_cut\067_OFT.MP4-cut.mov;365,3477673;0,676550744;Mel;2;far_side;0,8;3;0,266666667;to_hand_include;stationary;106;86;46;72;58;32;28;34;14
BD22-067;barred;23.10.2022;14:25:00;OFT_ESC_SOC;right_box;7607;1800;1;MH;BD22-050;BD22-058;21.10.2022;27.10.2022;Bastimentos_A2;10 to 15;2;BD22-068;black_barred;7,39;2699,92;4,99971;1;540,049;0;-899,814;930,217;E:\test_videos\OFT\vids_cut\067_OFT.MP4-cut.mov;365,3477673;0,676550744;Mel;3;far_side;2;5;0,4;to_hand_include;swimming;106;86;46;72;58;32;28;34;14
BD22-067;barred;23.10.2022;14:25:00;OFT_ESC_SOC;right_box;7607;1800;1;MH;BD22-050;BD22-058;21.10.2022;27.10.2022;Bastimentos_A2;10 to 15;2;BD22-068;black_barred;7,39;2699,92;4,99971;1;540,049;0;-899,814;930,217;E:\test_videos\OFT\vids_cut\067_OFT.MP4-cut.mov;365,3477673;0,676550744;Mel;4;close_side;2,24;6;0,373333333;to_hand_include;stationary;106;86;46;72;58;32;28;34;14
BD22-068;black;23.10.2022;14:22:00;OFT_ESC_SOC;left_box;0A4F;1800;1;MH;BD22-060;BD22-057;21.10.2022;27.10.2022;Bastimentos_A2;10 to 15;2;BD22-067;black_barred;7,46;3415,83;6,32544;1;540,049;0;-900,528;1006,75;E:\test_videos\OFT\vids_cut\068_OFT.mov-cut.mov;457,886059;0,847914209;Jakob;1;middle;0,66;1;0,66;to_hand_include;stationary;148;228;20;80;116;8;68;112;12
BD22-068;black;23.10.2022;14:22:00;OFT_ESC_SOC;left_box;0A4F;1800;1;MH;BD22-060;BD22-057;21.10.2022;27.10.2022;Bastimentos_A2;10 to 15;2;BD22-067;black_barred;7,46;3415,83;6,32544;1;540,049;0;-900,528;1006,75;E:\test_videos\OFT\vids_cut\068_OFT.mov-cut.mov;457,886059;0,847914209;Jakob;2;far_side;0,69;3;0,23;to_hand_include;stationary;148;228;20;80;116;8;68;112;12
BD22-068;black;23.10.2022;14:22:00;OFT_ESC_SOC;left_box;0A4F;1800;1;MH;BD22-060;BD22-057;21.10.2022;27.10.2022;Bastimentos_A2;10 to 15;2;BD22-067;black_barred;7,46;3415,83;6,32544;1;540,049;0;-900,528;1006,75;E:\test_videos\OFT\vids_cut\068_OFT.mov-cut.mov;457,886059;0,847914209;Jakob;3;far_side;0,57;2;0,285;to_hand_include;stationary;148;228;20;80;116;8;68;112;12
BD22-068;black;23.10.2022;14:22:00;OFT_ESC_SOC;left_box;0A4F;1800;1;MH;BD22-060;BD22-057;21.10.2022;27.10.2022;Bastimentos_A2;10 to 15;2;BD22-067;black_barred;7,46;3415,83;6,32544;1;540,049;0;-900,528;1006,75;E:\test_videos\OFT\vids_cut\068_OFT.mov-cut.mov;457,886059;0,847914209;Jakob;4;close_side;0,81;2;0,405;to_hand_include;stationary;148;228;20;80;116;8;68;112;12
BD22-069;barred;23.10.2022;15:09:00;OFT_ESC_SOC;left_box;0A4F;1800;1;MH;BD22-060;BD22-057;21.10.2022;24.10.2022;Bastimentos_A2;10 to 15;3;BD22-070;barred_barred;5,99;6656,79;12,327;1;540,049;0;-893,433;954,091;E:\test_videos\OFT\vids_cut\069_OFT.mov-cut.mov;1111,317195;2,057929883;Marco;1;middle;1,6;3;0,533333333;to_hand_include;stationary;246;348;6;0;306;0;246;42;6
BD22-069;barred;23.10.2022;15:09:00;OFT_ESC_SOC;left_box;0A4F;1800;1;MH;BD22-060;BD22-057;21.10.2022;24.10.2022;Bastimentos_A2;10 to 15;3;BD22-070;barred_barred;5,99;6656,79;12,327;1;540,049;0;-893,433;954,091;E:\test_videos\OFT\vids_cut\069_OFT.mov-cut.mov;1111,317195;2,057929883;Marco;2;close_side;0,8;2;0,4;to_hand_include;stationary;246;348;6;0;306;0;246;42;6
BD22-069;barred;23.10.2022;15:09:00;OFT_ESC_SOC;left_box;0A4F;1800;1;MH;BD22-060;BD22-057;21.10.2022;24.10.2022;Bastimentos_A2;10 to 15;3;BD22-070;barred_barred;5,99;6656,79;12,327;1;540,049;0;-893,433;954,091;E:\test_videos\OFT\vids_cut\069_OFT.mov-cut.mov;1111,317195;2,057929883;Marco;3;close_side;0,7;2;0,35;to_hand_include;stationary;246;348;6;0;306;0;246;42;6
BD22-069;barred;23.10.2022;15:09:00;OFT_ESC_SOC;left_box;0A4F;1800;1;MH;BD22-060;BD22-057;21.10.2022;24.10.2022;Bastimentos_A2;10 to 15;3;BD22-070;barred_barred;5,99;6656,79;12,327;1;540,049;0;-893,433;954,091;E:\test_videos\OFT\vids_cut\069_OFT.mov-cut.mov;1111,317195;2,057929883;Marco;4;close_side;1;2;0,5;to_hand_include;stationary;246;348;6;0;306;0;246;42;6
BD22-070;barred;23.10.2022;15:12:00;OFT_ESC_SOC;right_box;7607;1800;1;MH;BD22-050;BD22-058;21.10.2022;24.10.2022;Bastimentos_A2;10 to 15;3;BD22-069;barred_barred;6,71;4809,69;8,90659;1;540,049;0;-896,036;947,809;E:\test_videos\OFT\vids_cut\070_OFT.MP4-cut.mov;716,7943368;1,327360656;Marco;1;close_side;0,7;3;0,233333333;to_hand_include;stationary;188;334;0;188;60;0;0;274;0
BD22-070;barred;23.10.2022;15:12:00;OFT_ESC_SOC;right_box;7607;1800;1;MH;BD22-050;BD22-058;21.10.2022;24.10.2022;Bastimentos_A2;10 to 15;3;BD22-069;barred_barred;6,71;4809,69;8,90659;1;540,049;0;-896,036;947,809;E:\test_videos\OFT\vids_cut\070_OFT.MP4-cut.mov;716,7943368;1,327360656;Marco;2;far_side;0,4;2;0,2;to_hand_include;stationary;188;334;0;188;60;0;0;274;0
BD22-070;barred;23.10.2022;15:12:00;OFT_ESC_SOC;right_box;7607;1800;1;MH;BD22-050;BD22-058;21.10.2022;24.10.2022;Bastimentos_A2;10 to 15;3;BD22-069;barred_barred;6,71;4809,69;8,90659;1;540,049;0;-896,036;947,809;E:\test_videos\OFT\vids_cut\070_OFT.MP4-cut.mov;716,7943368;1,327360656;Marco;3;far_side;0,9;2;0,45;to_hand_include;stationary;188;334;0;188;60;0;0;274;0
BD22-070;barred;23.10.2022;15:12:00;OFT_ESC_SOC;right_box;7607;1800;1;MH;BD22-050;BD22-058;21.10.2022;24.10.2022;Bastimentos_A2;10 to 15;3;BD22-069;barred_barred;6,71;4809,69;8,90659;1;540,049;0;-896,036;947,809;E:\test_videos\OFT\vids_cut\070_OFT.MP4-cut.mov;716,7943368;1,327360656;Marco;4;middle;1,8;3;0,6;to_hand_include;stationary;188;334;0;188;60;0;0;274;0
BD22-071;barred;23.10.2022;15:58:00;OFT_ESC_SOC;left_box;0A4F;1800;1;MH;BD22-060;BD22-057;21.10.2022;24.10.2022;Bastimentos_A2;10 to 15;4;BD22-072;barred_barred;7,4;6936,79;12,8452;1;540,061;0;-895,68;1001,29;E:\test_videos\OFT\vids_cut\071_OFT.mov-cut.mov;937,4040541;1,735837838;Jakob;1;middle;0,69;2;0,345;to_hand_include;swimming;242;132;0;174;0;0;68;132;0
BD22-071;barred;23.10.2022;15:58:00;OFT_ESC_SOC;left_box;0A4F;1800;1;MH;BD22-060;BD22-057;21.10.2022;24.10.2022;Bastimentos_A2;10 to 15;4;BD22-072;barred_barred;7,4;6936,79;12,8452;1;540,061;0;-895,68;1001,29;E:\test_videos\OFT\vids_cut\071_OFT.mov-cut.mov;937,4040541;1,735837838;Jakob;2;close_side;0,87;3;0,29;to_hand_include;stationary;242;132;0;174;0;0;68;132;0
BD22-071;barred;23.10.2022;15:58:00;OFT_ESC_SOC;left_box;0A4F;1800;1;MH;BD22-060;BD22-057;21.10.2022;24.10.2022;Bastimentos_A2;10 to 15;4;BD22-072;barred_barred;7,4;6936,79;12,8452;1;540,061;0;-895,68;1001,29;E:\test_videos\OFT\vids_cut\071_OFT.mov-cut.mov;937,4040541;1,735837838;Jakob;3;middle;1,54;2;0,77;to_hand_include;stationary;242;132;0;174;0;0;68;132;0
BD22-071;barred;23.10.2022;15:58:00;OFT_ESC_SOC;left_box;0A4F;1800;1;MH;BD22-060;BD22-057;21.10.2022;24.10.2022;Bastimentos_A2;10 to 15;4;BD22-072;barred_barred;7,4;6936,79;12,8452;1;540,061;0;-895,68;1001,29;E:\test_videos\OFT\vids_cut\071_OFT.mov-cut.mov;937,4040541;1,735837838;Jakob;4;far_side;0,75;2;0,375;to_hand_include;stationary;242;132;0;174;0;0;68;132;0
BD22-072;barred;23.10.2022;16:01:00;OFT_ESC_SOC;right_box;7607;1800;1;MH;BD22-050;BD22-058;21.10.2022;24.10.2022;Bastimentos_A2;10 to 15;4;BD22-071;barred_barred;7,4;4604,67;8,52693;1;540,049;0;-898,028;933,933;E:\test_videos\OFT\vids_cut\072_OFT.MP4-cut.mov;622,2527027;1,152287838;Jakob;1;middle;3,45;5;0,69;to_hand_include;stationary;100;108;108;46;30;36;54;78;72
BD22-072;barred;23.10.2022;16:01:00;OFT_ESC_SOC;right_box;7607;1800;1;MH;BD22-050;BD22-058;21.10.2022;24.10.2022;Bastimentos_A2;10 to 15;4;BD22-071;barred_barred;7,4;4604,67;8,52693;1;540,049;0;-898,028;933,933;E:\test_videos\OFT\vids_cut\072_OFT.MP4-cut.mov;622,2527027;1,152287838;Jakob;2;close_side;3,09;6;0,515;to_hand_include;stationary;100;108;108;46;30;36;54;78;72
BD22-072;barred;23.10.2022;16:01:00;OFT_ESC_SOC;right_box;7607;1800;1;MH;BD22-050;BD22-058;21.10.2022;24.10.2022;Bastimentos_A2;10 to 15;4;BD22-071;barred_barred;7,4;4604,67;8,52693;1;540,049;0;-898,028;933,933;E:\test_videos\OFT\vids_cut\072_OFT.MP4-cut.mov;622,2527027;1,152287838;Jakob;3;far_side;0,44;2;0,22;to_hand_include;stationary;100;108;108;46;30;36;54;78;72
BD22-072;barred;23.10.2022;16:01:00;OFT_ESC_SOC;right_box;7607;1800;1;MH;BD22-050;BD22-058;21.10.2022;24.10.2022;Bastimentos_A2;10 to 15;4;BD22-071;barred_barred;7,4;4604,67;8,52693;1;540,049;0;-898,028;933,933;E:\test_videos\OFT\vids_cut\072_OFT.MP4-cut.mov;622,2527027;1,152287838;Jakob;4;far_side;0,56;2;0,28;to_hand_include;stationary;100;108;108;46;30;36;54;78;72
BD22-073;barred;23.10.2022;10:38:00;OFT_ESC_SOC;left_box;0A4F;1800;1;MH;BD22-060;BD22-057;21.10.2022;24.10.2022;Bastimentos_A2;10 to 15;5;BD22-074;barred_barred;6,88;5427,69;10,051;1;540,049;0;-901,217;1443,33;E:\test_videos\OFT\vids_cut\073_OFT.mov-cut.mov;788,9084302;1,460901163;Jakob;1;close_side;0,9;4;0,225;to_curtain_exclude;stationary;76;188;48;64;110;0;12;78;48
BD22-073;barred;23.10.2022;10:38:00;OFT_ESC_SOC;left_box;0A4F;1800;1;MH;BD22-060;BD22-057;21.10.2022;24.10.2022;Bastimentos_A2;10 to 15;5;BD22-074;barred_barred;6,88;5427,69;10,051;1;540,049;0;-901,217;1443,33;E:\test_videos\OFT\vids_cut\073_OFT.mov-cut.mov;788,9084302;1,460901163;Jakob;2;close_side;1,03;3;0,343333333;to_hand_include;stationary;76;188;48;64;110;0;12;78;48
BD22-073;barred;23.10.2022;10:38:00;OFT_ESC_SOC;left_box;0A4F;1800;1;MH;BD22-060;BD22-057;21.10.2022;24.10.2022;Bastimentos_A2;10 to 15;5;BD22-074;barred_barred;6,88;5427,69;10,051;1;540,049;0;-901,217;1443,33;E:\test_videos\OFT\vids_cut\073_OFT.mov-cut.mov;788,9084302;1,460901163;Jakob;3;middle;3,13;8;0,39125;to_hand_include;stationary;76;188;48;64;110;0;12;78;48
BD22-073;barred;23.10.2022;10:38:00;OFT_ESC_SOC;left_box;0A4F;1800;1;MH;BD22-060;BD22-057;21.10.2022;24.10.2022;Bastimentos_A2;10 to 15;5;BD22-074;barred_barred;6,88;5427,69;10,051;1;540,049;0;-901,217;1443,33;E:\test_videos\OFT\vids_cut\073_OFT.mov-cut.mov;788,9084302;1,460901163;Jakob;4;far_side;1,73;3;0,576666667;to_hand_include;stationary;76;188;48;64;110;0;12;78;48
BD22-074;barred;23.10.2022;10:43:00;OFT_ESC_SOC;right_box;7607;1800;1;MH;BD22-050;BD22-058;21.10.2022;24.10.2022;Bastimentos_A2;10 to 15;5;BD22-073;barred_barred;7,31;125,263;0,231961;1;540,049;0;-676,388;676,388;E:\test_videos\OFT\vids_cut\074_OFT.MP4-cut.mov;17,13584131;0,031732011;Jakob;1;far_side;1,3;3;0,433333333;to_hand_include;stationary;90;98;4;84;92;4;6;6;0
BD22-074;barred;23.10.2022;10:43:00;OFT_ESC_SOC;right_box;7607;1800;1;MH;BD22-050;BD22-058;21.10.2022;24.10.2022;Bastimentos_A2;10 to 15;5;BD22-073;barred_barred;7,31;125,263;0,231961;1;540,049;0;-676,388;676,388;E:\test_videos\OFT\vids_cut\074_OFT.MP4-cut.mov;17,13584131;0,031732011;Jakob;2;far_side;1,8;4;0,45;to_hand_include;stationary;90;98;4;84;92;4;6;6;0
BD22-074;barred;23.10.2022;10:43:00;OFT_ESC_SOC;right_box;7607;1800;1;MH;BD22-050;BD22-058;21.10.2022;24.10.2022;Bastimentos_A2;10 to 15;5;BD22-073;barred_barred;7,31;125,263;0,231961;1;540,049;0;-676,388;676,388;E:\test_videos\OFT\vids_cut\074_OFT.MP4-cut.mov;17,13584131;0,031732011;Jakob;3;close_side;1,43;3;0,476666667;to_hand_include;stationary;90;98;4;84;92;4;6;6;0
BD22-074;barred;23.10.2022;10:43:00;OFT_ESC_SOC;right_box;7607;1800;1;MH;BD22-050;BD22-058;21.10.2022;24.10.2022;Bastimentos_A2;10 to 15;5;BD22-073;barred_barred;7,31;125,263;0,231961;1;540,049;0;-676,388;676,388;E:\test_videos\OFT\vids_cut\074_OFT.MP4-cut.mov;17,13584131;0,031732011;Jakob;4;close_side;3,47;5;0,694;to_hand_include;stationary;90;98;4;84;92;4;6;6;0
BD22-075;barred;23.10.2022;11:27:00;OFT_ESC_SOC;left_box;0A4F;1800;1;MH;BD22-060;BD22-057;21.10.2022;24.10.2022;Bastimentos_A2;10 to 15;6;BD22-076;barred_barred;6,81;121,884;0,225705;1;540,049;0;-877,081;890,229;E:\test_videos\OFT\vids_cut\075_OFT.mov-cut.mov;17,89779736;0,033143172;Mel;2;middle;1,12;3;0,373333333;to_curtain_exclude;stationary;234;318;20;0;248;20;234;70;0
BD22-075;barred;23.10.2022;11:27:00;OFT_ESC_SOC;left_box;0A4F;1800;1;MH;BD22-060;BD22-057;21.10.2022;24.10.2022;Bastimentos_A2;10 to 15;6;BD22-076;barred_barred;6,81;121,884;0,225705;1;540,049;0;-877,081;890,229;E:\test_videos\OFT\vids_cut\075_OFT.mov-cut.mov;17,89779736;0,033143172;Mel;1;far_side;0,6;2;0,3;to_hand_include;stationary;234;318;20;0;248;20;234;70;0
BD22-075;barred;23.10.2022;11:27:00;OFT_ESC_SOC;left_box;0A4F;1800;1;MH;BD22-060;BD22-057;21.10.2022;24.10.2022;Bastimentos_A2;10 to 15;6;BD22-076;barred_barred;6,81;121,884;0,225705;1;540,049;0;-877,081;890,229;E:\test_videos\OFT\vids_cut\075_OFT.mov-cut.mov;17,89779736;0,033143172;Mel;3;far_side;0,52;2;0,26;to_hand_include;stationary;234;318;20;0;248;20;234;70;0
BD22-075;barred;23.10.2022;11:27:00;OFT_ESC_SOC;left_box;0A4F;1800;1;MH;BD22-060;BD22-057;21.10.2022;24.10.2022;Bastimentos_A2;10 to 15;6;BD22-076;barred_barred;6,81;121,884;0,225705;1;540,049;0;-877,081;890,229;E:\test_videos\OFT\vids_cut\075_OFT.mov-cut.mov;17,89779736;0,033143172;Mel;4;far_side;0,6;2;0,3;to_hand_include;stationary;234;318;20;0;248;20;234;70;0
BD22-076;barred;23.10.2022;11:30:00;OFT_ESC_SOC;right_box;7607;1800;1;MH;BD22-050;BD22-058;21.10.2022;24.10.2022;Bastimentos_A2;10 to 15;6;BD22-075;barred_barred;6,81;23,9913;0,0444267;1;540,052;0;-669,541;669,541;E:\test_videos\OFT\vids_cut\076_OFT.MP4-cut.mov;3,522951542;0,006523744;Jakob;1;close_side;1,7;4;0,425;to_hand_include;stationary;8;14;4;8;14;4;0;0;0
BD22-076;barred;23.10.2022;11:30:00;OFT_ESC_SOC;right_box;7607;1800;1;MH;BD22-050;BD22-058;21.10.2022;24.10.2022;Bastimentos_A2;10 to 15;6;BD22-075;barred_barred;6,81;23,9913;0,0444267;1;540,052;0;-669,541;669,541;E:\test_videos\OFT\vids_cut\076_OFT.MP4-cut.mov;3,522951542;0,006523744;Jakob;2;far_side;0,73;4;0,1825;to_hand_include;stationary;8;14;4;8;14;4;0;0;0
BD22-076;barred;23.10.2022;11:30:00;OFT_ESC_SOC;right_box;7607;1800;1;MH;BD22-050;BD22-058;21.10.2022;24.10.2022;Bastimentos_A2;10 to 15;6;BD22-075;barred_barred;6,81;23,9913;0,0444267;1;540,052;0;-669,541;669,541;E:\test_videos\OFT\vids_cut\076_OFT.MP4-cut.mov;3,522951542;0,006523744;Jakob;3;close_side;3,3;5;0,66;to_hand_include;stationary;8;14;4;8;14;4;0;0;0
BD22-076;barred;23.10.2022;11:30:00;OFT_ESC_SOC;right_box;7607;1800;1;MH;BD22-050;BD22-058;21.10.2022;24.10.2022;Bastimentos_A2;10 to 15;6;BD22-075;barred_barred;6,81;23,9913;0,0444267;1;540,052;0;-669,541;669,541;E:\test_videos\OFT\vids_cut\076_OFT.MP4-cut.mov;3,522951542;0,006523744;Jakob;4;close_side;0,97;2;0,485;to_hand_include;stationary;8;14;4;8;14;4;0;0;0
BD22-077;black;26.10.2022;10:21:00;OFT_ESC_SOC;left_box;0A4F;1800;1;JG;BD22-067;BD22-068;24.10.2022;27.10.2022;Solarte_C;10;1;BD22-078;black_barred;7,47;4788,96;8,86819;1;540,049;0;-894,017;961,154;E:\test_videos\OFT\vids_cut\077_OFT.mov-cut.mov;641,0923695;1,187174029;Jakob;1;middle;1,6;5;0,32;to_hand_include;stationary;134;346;10;116;84;10;18;262;0
BD22-077;black;26.10.2022;10:21:00;OFT_ESC_SOC;left_box;0A4F;1800;1;JG;BD22-067;BD22-068;24.10.2022;27.10.2022;Solarte_C;10;1;BD22-078;black_barred;7,47;4788,96;8,86819;1;540,049;0;-894,017;961,154;E:\test_videos\OFT\vids_cut\077_OFT.mov-cut.mov;641,0923695;1,187174029;Jakob;2;far_side;1,2;3;0,4;to_hand_include;stationary;134;346;10;116;84;10;18;262;0
BD22-077;black;26.10.2022;10:21:00;OFT_ESC_SOC;left_box;0A4F;1800;1;JG;BD22-067;BD22-068;24.10.2022;27.10.2022;Solarte_C;10;1;BD22-078;black_barred;7,47;4788,96;8,86819;1;540,049;0;-894,017;961,154;E:\test_videos\OFT\vids_cut\077_OFT.mov-cut.mov;641,0923695;1,187174029;Jakob;3;close_side;0,83;2;0,415;to_hand_include;stationary;134;346;10;116;84;10;18;262;0
BD22-077;black;26.10.2022;10:21:00;OFT_ESC_SOC;left_box;0A4F;1800;1;JG;BD22-067;BD22-068;24.10.2022;27.10.2022;Solarte_C;10;1;BD22-078;black_barred;7,47;4788,96;8,86819;1;540,049;0;-894,017;961,154;E:\test_videos\OFT\vids_cut\077_OFT.mov-cut.mov;641,0923695;1,187174029;Jakob;4;close_side;3;4;0,75;to_hand_include;stationary;134;346;10;116;84;10;18;262;0
BD22-078;barred;26.10.2022;10:24:00;OFT_ESC_SOC;right_box;7607;1800;1;JG;BD22-065;BD22-058;24.10.2022;27.10.2022;Solarte_C;10;1;BD22-077;black_barred;7,93;4199,83;7,77724;1;540,049;0;-898,686;958,195;E:\test_videos\OFT\vids_cut\078_OFT.MP4-cut.mov;529,6128625;0,980736444;Mel;1;middle;0,92;6;0,153333333;to_hand_include;stationary;154;70;60;92;52;38;62;18;22
BD22-078;barred;26.10.2022;10:24:00;OFT_ESC_SOC;right_box;7607;1800;1;JG;BD22-065;BD22-058;24.10.2022;27.10.2022;Solarte_C;10;1;BD22-077;black_barred;7,93;4199,83;7,77724;1;540,049;0;-898,686;958,195;E:\test_videos\OFT\vids_cut\078_OFT.MP4-cut.mov;529,6128625;0,980736444;Mel;2;far_side;2;10;0,2;to_hand_include;stationary;154;70;60;92;52;38;62;18;22
BD22-078;barred;26.10.2022;10:24:00;OFT_ESC_SOC;right_box;7607;1800;1;JG;BD22-065;BD22-058;24.10.2022;27.10.2022;Solarte_C;10;1;BD22-077;black_barred;7,93;4199,83;7,77724;1;540,049;0;-898,686;958,195;E:\test_videos\OFT\vids_cut\078_OFT.MP4-cut.mov;529,6128625;0,980736444;Mel;3;close_side;0,76;3;0,253333333;to_hand_include;stationary;154;70;60;92;52;38;62;18;22
BD22-078;barred;26.10.2022;10:24:00;OFT_ESC_SOC;right_box;7607;1800;1;JG;BD22-065;BD22-058;24.10.2022;27.10.2022;Solarte_C;10;1;BD22-077;black_barred;7,93;4199,83;7,77724;1;540,049;0;-898,686;958,195;E:\test_videos\OFT\vids_cut\078_OFT.MP4-cut.mov;529,6128625;0,980736444;Mel;4;middle;1,12;4;0,28;to_hand_include;stationary;154;70;60;92;52;38;62;18;22
BD22-079;barred;26.10.2022;12:23:00;OFT_ESC_SOC;left_box;0A4F;1800;1;JG;BD22-067;BD22-068;24.10.2022;27.10.2022;Solarte_C;10;H2;BD22-080;barred_barred;6,66;164,626;0,304854;1;540,049;0;-703,347;703,347;E:\test_videos\OFT\vids_cut\079_OFT.mov-cut.mov;24,71861862;0,045773874;Mel;1;far_side;0,8;2;0,4;to_hand_include;stationary;154;276;10;104;100;10;50;176;0
BD22-079;barred;26.10.2022;12:23:00;OFT_ESC_SOC;left_box;0A4F;1800;1;JG;BD22-067;BD22-068;24.10.2022;27.10.2022;Solarte_C;10;H2;BD22-080;barred_barred;6,66;164,626;0,304854;1;540,049;0;-703,347;703,347;E:\test_videos\OFT\vids_cut\079_OFT.mov-cut.mov;24,71861862;0,045773874;Mel;2;close_side;0,56;3;0,186666667;to_hand_include;stationary;154;276;10;104;100;10;50;176;0
BD22-079;barred;26.10.2022;12:23:00;OFT_ESC_SOC;left_box;0A4F;1800;1;JG;BD22-067;BD22-068;24.10.2022;27.10.2022;Solarte_C;10;H2;BD22-080;barred_barred;6,66;164,626;0,304854;1;540,049;0;-703,347;703,347;E:\test_videos\OFT\vids_cut\079_OFT.mov-cut.mov;24,71861862;0,045773874;Mel;3;far_side;NA;NA;NA;to_hand_include;stationary;154;276;10;104;100;10;50;176;0
BD22-079;barred;26.10.2022;12:23:00;OFT_ESC_SOC;left_box;0A4F;1800;1;JG;BD22-067;BD22-068;24.10.2022;27.10.2022;Solarte_C;10;H2;BD22-080;barred_barred;6,66;164,626;0,304854;1;540,049;0;-703,347;703,347;E:\test_videos\OFT\vids_cut\079_OFT.mov-cut.mov;24,71861862;0,045773874;Mel;4;far_side;1,12;3;0,373333333;to_hand_include;stationary;154;276;10;104;100;10;50;176;0
BD22-080;barred;26.10.2022;12:26:00;OFT_ESC_SOC;right_box;7607;1800;1;JG;BD22-065;BD22-058;24.10.2022;27.10.2022;Solarte_C;10;H2;BD22-079;barred_barred;6,49;6622,22;12,263;1;540,049;0;-912,485;1308,07;E:\test_videos\OFT\vids_cut\080_OFT.MP4-cut.mov;1020,372881;1,889522342;Marco;1;far_side;1,1;4;0,275;to_curtain_exclude;swimming;262;146;0;152;64;0;110;82;0
BD22-080;barred;26.10.2022;12:26:00;OFT_ESC_SOC;right_box;7607;1800;1;JG;BD22-065;BD22-058;24.10.2022;27.10.2022;Solarte_C;10;H2;BD22-079;barred_barred;6,49;6622,22;12,263;1;540,049;0;-912,485;1308,07;E:\test_videos\OFT\vids_cut\080_OFT.MP4-cut.mov;1020,372881;1,889522342;Marco;2;close_side;0,6;2;0,3;to_hand_include;stationary;262;146;0;152;64;0;110;82;0
BD22-080;barred;26.10.2022;12:26:00;OFT_ESC_SOC;right_box;7607;1800;1;JG;BD22-065;BD22-058;24.10.2022;27.10.2022;Solarte_C;10;H2;BD22-079;barred_barred;6,49;6622,22;12,263;1;540,049;0;-912,485;1308,07;E:\test_videos\OFT\vids_cut\080_OFT.MP4-cut.mov;1020,372881;1,889522342;Marco;3;far_side;1,4;4;0,35;to_hand_include;stationary;262;146;0;152;64;0;110;82;0
BD22-080;barred;26.10.2022;12:26:00;OFT_ESC_SOC;right_box;7607;1800;1;JG;BD22-065;BD22-058;24.10.2022;27.10.2022;Solarte_C;10;H2;BD22-079;barred_barred;6,49;6622,22;12,263;1;540,049;0;-912,485;1308,07;E:\test_videos\OFT\vids_cut\080_OFT.MP4-cut.mov;1020,372881;1,889522342;Marco;4;middle;0,6;2;0,3;to_hand_include;swimming;262;146;0;152;64;0;110;82;0
BD22-081;black;26.10.2022;13:04:00;OFT_ESC_SOC;left_box;0A4F;1800;1;MH;BD22-067;BD22-068;24.10.2022;31.10.2022;Solarte_B;10;2;BD22-082;black_black;7,36;119,401;0,221106;1;540,049;0;-862,552;885,751;E:\test_videos\OFT\vids_cut\081_OFT.mov-cut.mov;16,22296196;0,030041576;Mel;3;close_side;0,28;1;0,28;to_hand_include;stationary;276;342;0;18;286;0;258;56;0
BD22-081;black;26.10.2022;13:04:00;OFT_ESC_SOC;left_box;0A4F;1800;1;MH;BD22-067;BD22-068;24.10.2022;31.10.2022;Solarte_B;10;2;BD22-082;black_black;7,36;119,401;0,221106;1;540,049;0;-862,552;885,751;E:\test_videos\OFT\vids_cut\081_OFT.mov-cut.mov;16,22296196;0,030041576;Mel;1;close_side;0;0;0;touched;stationary;276;342;0;18;286;0;258;56;0
BD22-081;black;26.10.2022;13:04:00;OFT_ESC_SOC;left_box;0A4F;1800;1;MH;BD22-067;BD22-068;24.10.2022;31.10.2022;Solarte_B;10;2;BD22-082;black_black;7,36;119,401;0,221106;1;540,049;0;-862,552;885,751;E:\test_videos\OFT\vids_cut\081_OFT.mov-cut.mov;16,22296196;0,030041576;Mel;2;close_side;0;0;0;touched;stationary;276;342;0;18;286;0;258;56;0
BD22-081;black;26.10.2022;13:04:00;OFT_ESC_SOC;left_box;0A4F;1800;1;MH;BD22-067;BD22-068;24.10.2022;31.10.2022;Solarte_B;10;2;BD22-082;black_black;7,36;119,401;0,221106;1;540,049;0;-862,552;885,751;E:\test_videos\OFT\vids_cut\081_OFT.mov-cut.mov;16,22296196;0,030041576;Mel;4;close_side;0;0;0;touched;stationary;276;342;0;18;286;0;258;56;0
BD22-082;black;26.10.2022;13:06:00;OFT_ESC_SOC;right_box;7607;1800;1;MH;BD22-065;BD22-058;24.10.2022;27.10.2022;Solarte_B;10;2;BD22-081;black_black;8,11;305,213;0,565193;1;540,049;0;-869,218;895,895;E:\test_videos\OFT\vids_cut\082_OFT.MP4-cut.mov;37,63415536;0,069690875;Mel;1;far_side;0,16;1;0,16;to_hand_include;stationary;218;174;44;182;48;10;36;126;34
BD22-082;black;26.10.2022;13:06:00;OFT_ESC_SOC;right_box;7607;1800;1;MH;BD22-065;BD22-058;24.10.2022;27.10.2022;Solarte_B;10;2;BD22-081;black_black;8,11;305,213;0,565193;1;540,049;0;-869,218;895,895;E:\test_videos\OFT\vids_cut\082_OFT.MP4-cut.mov;37,63415536;0,069690875;Mel;2;far_side;0,24;1;0,24;to_hand_include;stationary;218;174;44;182;48;10;36;126;34
BD22-082;black;26.10.2022;13:06:00;OFT_ESC_SOC;right_box;7607;1800;1;MH;BD22-065;BD22-058;24.10.2022;27.10.2022;Solarte_B;10;2;BD22-081;black_black;8,11;305,213;0,565193;1;540,049;0;-869,218;895,895;E:\test_videos\OFT\vids_cut\082_OFT.MP4-cut.mov;37,63415536;0,069690875;Mel;3;far_side;0,2;1;0,2;to_hand_include;stationary;218;174;44;182;48;10;36;126;34
BD22-082;black;26.10.2022;13:06:00;OFT_ESC_SOC;right_box;7607;1800;1;MH;BD22-065;BD22-058;24.10.2022;27.10.2022;Solarte_B;10;2;BD22-081;black_black;8,11;305,213;0,565193;1;540,049;0;-869,218;895,895;E:\test_videos\OFT\vids_cut\082_OFT.MP4-cut.mov;37,63415536;0,069690875;Mel;4;far_side;0,16;1;0,16;to_hand_include;stationary;218;174;44;182;48;10;36;126;34
BD22-083;barred;26.10.2022;14:09:00;OFT_ESC_SOC;left_box;0A4F;1800;1;JG;BD22-067;BD22-068;24.10.2022;NA;Solarte_B;10;3;BD22-084;barred_barred;7,21;1862,64;3,44923;1;540,049;0;-891,818;906,703;E:\test_videos\OFT\vids_cut\083_OFT.mov-cut.mov;258,3411928;0,478395284;Mel;1;close_side;0,32;1;0,32;to_hand_include;stationary;202;52;4;80;8;0;122;44;4
BD22-083;barred;26.10.2022;14:09:00;OFT_ESC_SOC;left_box;0A4F;1800;1;JG;BD22-067;BD22-068;24.10.2022;NA;Solarte_B;10;3;BD22-084;barred_barred;7,21;1862,64;3,44923;1;540,049;0;-891,818;906,703;E:\test_videos\OFT\vids_cut\083_OFT.mov-cut.mov;258,3411928;0,478395284;Mel;2;close_side;1,2;3;0,4;to_hand_include;stationary;202;52;4;80;8;0;122;44;4
BD22-083;barred;26.10.2022;14:09:00;OFT_ESC_SOC;left_box;0A4F;1800;1;JG;BD22-067;BD22-068;24.10.2022;NA;Solarte_B;10;3;BD22-084;barred_barred;7,21;1862,64;3,44923;1;540,049;0;-891,818;906,703;E:\test_videos\OFT\vids_cut\083_OFT.mov-cut.mov;258,3411928;0,478395284;Mel;3;far_side;0,36;1;0,36;to_hand_include;stationary;202;52;4;80;8;0;122;44;4
BD22-083;barred;26.10.2022;14:09:00;OFT_ESC_SOC;left_box;0A4F;1800;1;JG;BD22-067;BD22-068;24.10.2022;NA;Solarte_B;10;3;BD22-084;barred_barred;7,21;1862,64;3,44923;1;540,049;0;-891,818;906,703;E:\test_videos\OFT\vids_cut\083_OFT.mov-cut.mov;258,3411928;0,478395284;Mel;4;close_side;0,52;2;0,26;to_hand_include;stationary;202;52;4;80;8;0;122;44;4
BD22-084;barred;26.10.2022;14:13:00;OFT_ESC_SOC;right_box;7607;1800;1;JG;BD22-065;BD22-058;24.10.2022;27.10.2022;Solarte_B;10;3;BD22-083;barred_barred;7,75;1076,39;1,99326;1;540,049;0;-892,359;928,363;E:\test_videos\OFT\vids_cut\084_OFT.MP4-cut.mov;138,8890323;0,257194839;Marco;1;close_side;0,5;2;0,25;to_hand_include;stationary;168;270;36;114;88;6;54;182;30
BD22-084;barred;26.10.2022;14:13:00;OFT_ESC_SOC;right_box;7607;1800;1;JG;BD22-065;BD22-058;24.10.2022;27.10.2022;Solarte_B;10;3;BD22-083;barred_barred;7,75;1076,39;1,99326;1;540,049;0;-892,359;928,363;E:\test_videos\OFT\vids_cut\084_OFT.MP4-cut.mov;138,8890323;0,257194839;Marco;2;far_side;1;3;0,333333333;to_hand_include;stationary;168;270;36;114;88;6;54;182;30
BD22-084;barred;26.10.2022;14:13:00;OFT_ESC_SOC;right_box;7607;1800;1;JG;BD22-065;BD22-058;24.10.2022;27.10.2022;Solarte_B;10;3;BD22-083;barred_barred;7,75;1076,39;1,99326;1;540,049;0;-892,359;928,363;E:\test_videos\OFT\vids_cut\084_OFT.MP4-cut.mov;138,8890323;0,257194839;Marco;3;close_side;1;3;0,333333333;to_hand_include;stationary;168;270;36;114;88;6;54;182;30
BD22-084;barred;26.10.2022;14:13:00;OFT_ESC_SOC;right_box;7607;1800;1;JG;BD22-065;BD22-058;24.10.2022;27.10.2022;Solarte_B;10;3;BD22-083;barred_barred;7,75;1076,39;1,99326;1;540,049;0;-892,359;928,363;E:\test_videos\OFT\vids_cut\084_OFT.MP4-cut.mov;138,8890323;0,257194839;Marco;4;close_side;0,8;2;0,4;to_hand_include;stationary;168;270;36;114;88;6;54;182;30
BD22-085;black;26.10.2022;11:37:00;OFT_ESC_SOC;left_box;0A4F;1800;1;JG;BD22-065;BD22-058;24.10.2022;27.10.2022;Solarte_B;10;4;BD22-086;black_black;6,63;3583,14;6,63511;1;540,061;0;-1411,06;1084,8;E:\test_videos\OFT\vids_cut\085_OFT.mov-cut.mov;540,4434389;1,000770739;Mel;1;middle;0,92;4;0,23;to_hand_include;stationary;290;158;8;110;110;8;180;48;0
BD22-085;black;26.10.2022;11:37:00;OFT_ESC_SOC;left_box;0A4F;1800;1;JG;BD22-065;BD22-058;24.10.2022;27.10.2022;Solarte_B;10;4;BD22-086;black_black;6,63;3583,14;6,63511;1;540,061;0;-1411,06;1084,8;E:\test_videos\OFT\vids_cut\085_OFT.mov-cut.mov;540,4434389;1,000770739;Mel;2;far_side;0,56;2;0,28;to_hand_include;stationary;290;158;8;110;110;8;180;48;0
BD22-085;black;26.10.2022;11:37:00;OFT_ESC_SOC;left_box;0A4F;1800;1;JG;BD22-065;BD22-058;24.10.2022;27.10.2022;Solarte_B;10;4;BD22-086;black_black;6,63;3583,14;6,63511;1;540,061;0;-1411,06;1084,8;E:\test_videos\OFT\vids_cut\085_OFT.mov-cut.mov;540,4434389;1,000770739;Mel;3;close_side;1,04;2;0,52;to_hand_include;stationary;290;158;8;110;110;8;180;48;0
BD22-085;black;26.10.2022;11:37:00;OFT_ESC_SOC;left_box;0A4F;1800;1;JG;BD22-065;BD22-058;24.10.2022;27.10.2022;Solarte_B;10;4;BD22-086;black_black;6,63;3583,14;6,63511;1;540,061;0;-1411,06;1084,8;E:\test_videos\OFT\vids_cut\085_OFT.mov-cut.mov;540,4434389;1,000770739;Mel;4;middle;0,72;2;0,36;to_hand_include;stationary;290;158;8;110;110;8;180;48;0
BD22-086;black;26.10.2022;11:41:00;OFT_ESC_SOC;right_box;7607;1800;1;JG;BD22-067;BD22-068;24.10.2022;27.10.2022;Solarte_B;10;4;BD22-085;black_black;6,73;104,833;0,19413;1;540,048;0;-607,582;607,582;E:\test_videos\OFT\vids_cut\086_OFT.MP4-cut.mov;15,5769688;0,028845468;Marco;3;close_side;0,2;1;0,2;to_curtain_exclude;stationary;196;210;22;156;42;0;40;168;22
BD22-086;black;26.10.2022;11:41:00;OFT_ESC_SOC;right_box;7607;1800;1;JG;BD22-067;BD22-068;24.10.2022;27.10.2022;Solarte_B;10;4;BD22-085;black_black;6,73;104,833;0,19413;1;540,048;0;-607,582;607,582;E:\test_videos\OFT\vids_cut\086_OFT.MP4-cut.mov;15,5769688;0,028845468;Marco;1;close_side;0,2;1;0,2;to_hand_include;stationary;196;210;22;156;42;0;40;168;22
BD22-086;black;26.10.2022;11:41:00;OFT_ESC_SOC;right_box;7607;1800;1;JG;BD22-067;BD22-068;24.10.2022;27.10.2022;Solarte_B;10;4;BD22-085;black_black;6,73;104,833;0,19413;1;540,048;0;-607,582;607,582;E:\test_videos\OFT\vids_cut\086_OFT.MP4-cut.mov;15,5769688;0,028845468;Marco;2;middle;0,3;1;0,3;to_hand_include;stationary;196;210;22;156;42;0;40;168;22
BD22-086;black;26.10.2022;11:41:00;OFT_ESC_SOC;right_box;7607;1800;1;JG;BD22-067;BD22-068;24.10.2022;27.10.2022;Solarte_B;10;4;BD22-085;black_black;6,73;104,833;0,19413;1;540,048;0;-607,582;607,582;E:\test_videos\OFT\vids_cut\086_OFT.MP4-cut.mov;15,5769688;0,028845468;Marco;4;middle;0,3;1;0,3;to_hand_include;stationary;196;210;22;156;42;0;40;168;22
BD22-087;barred;26.10.2022;15:40:00;OFT_ESC_SOC;left_box;0A4F;1800;1;JG;BD22-065;BD22-058;24.10.2022;31.10.2022;Solarte_B;10;5;BD22-088;black_barred;7,24;1297,71;2,4031;1;540,049;0;-901,283;928,799;E:\test_videos\OFT\vids_cut\087_OFT.mov-cut.mov;179,2417127;0,33191989;Marco;1;middle;0,4;2;0,2;to_hand_include;stationary;150;218;22;84;114;0;66;104;22
BD22-087;barred;26.10.2022;15:40:00;OFT_ESC_SOC;left_box;0A4F;1800;1;JG;BD22-065;BD22-058;24.10.2022;31.10.2022;Solarte_B;10;5;BD22-088;black_barred;7,24;1297,71;2,4031;1;540,049;0;-901,283;928,799;E:\test_videos\OFT\vids_cut\087_OFT.mov-cut.mov;179,2417127;0,33191989;Marco;2;far_side;1,1;3;0,366666667;to_hand_include;stationary;150;218;22;84;114;0;66;104;22
BD22-087;barred;26.10.2022;15:40:00;OFT_ESC_SOC;left_box;0A4F;1800;1;JG;BD22-065;BD22-058;24.10.2022;31.10.2022;Solarte_B;10;5;BD22-088;black_barred;7,24;1297,71;2,4031;1;540,049;0;-901,283;928,799;E:\test_videos\OFT\vids_cut\087_OFT.mov-cut.mov;179,2417127;0,33191989;Marco;3;far_side;0,4;2;0,2;to_hand_include;stationary;150;218;22;84;114;0;66;104;22
BD22-087;barred;26.10.2022;15:40:00;OFT_ESC_SOC;left_box;0A4F;1800;1;JG;BD22-065;BD22-058;24.10.2022;31.10.2022;Solarte_B;10;5;BD22-088;black_barred;7,24;1297,71;2,4031;1;540,049;0;-901,283;928,799;E:\test_videos\OFT\vids_cut\087_OFT.mov-cut.mov;179,2417127;0,33191989;Marco;4;far_side;0,4;1;0,4;to_hand_include;stationary;150;218;22;84;114;0;66;104;22
BD22-088;black;26.10.2022;15:43:00;OFT_ESC_SOC;right_box;7607;1800;1;JG;BD22-067;BD22-068;24.10.2022;31.10.2022;Solarte_B;10;5;BD22-087;black_barred;7,09;83,2948;0,154242;1;540,061;0;-616,772;616,772;E:\test_videos\OFT\vids_cut\088_OFT.MP4-cut.mov;11,74820874;0,021754866;Mel;1;close_side;0,64;2;0,32;to_hand_include;stationary;54;42;32;54;42;32;0;0;0
BD22-088;black;26.10.2022;15:43:00;OFT_ESC_SOC;right_box;7607;1800;1;JG;BD22-067;BD22-068;24.10.2022;31.10.2022;Solarte_B;10;5;BD22-087;black_barred;7,09;83,2948;0,154242;1;540,061;0;-616,772;616,772;E:\test_videos\OFT\vids_cut\088_OFT.MP4-cut.mov;11,74820874;0,021754866;Mel;2;far_side;0,48;2;0,24;to_hand_include;stationary;54;42;32;54;42;32;0;0;0
BD22-088;black;26.10.2022;15:43:00;OFT_ESC_SOC;right_box;7607;1800;1;JG;BD22-067;BD22-068;24.10.2022;31.10.2022;Solarte_B;10;5;BD22-087;black_barred;7,09;83,2948;0,154242;1;540,061;0;-616,772;616,772;E:\test_videos\OFT\vids_cut\088_OFT.MP4-cut.mov;11,74820874;0,021754866;Mel;3;far_side;0,52;2;0,26;to_hand_include;stationary;54;42;32;54;42;32;0;0;0
BD22-088;black;26.10.2022;15:43:00;OFT_ESC_SOC;right_box;7607;1800;1;JG;BD22-067;BD22-068;24.10.2022;31.10.2022;Solarte_B;10;5;BD22-087;black_barred;7,09;83,2948;0,154242;1;540,061;0;-616,772;616,772;E:\test_videos\OFT\vids_cut\088_OFT.MP4-cut.mov;11,74820874;0,021754866;Mel;4;middle;0,72;2;0,36;to_hand_include;stationary;54;42;32;54;42;32;0;0;0
BD22-089;barred;26.10.2022;14:53:00;OFT_ESC_SOC;left_box;0A4F;1800;1;JG;BD22-065;BD22-058;24.10.2022;27.10.2022;Solarte_B;10;7;BD22-090;black_barred;6,24;347,592;0,643666;1;540,052;0;-1544,42;1544,42;E:\test_videos\OFT\vids_cut\089_OFT.mov-cut.mov;55,70384615;0,103151603;Mel;1;middle;0,76;3;0,253333333;to_hand_include;stationary;66;76;12;32;46;6;34;30;6
BD22-089;barred;26.10.2022;14:53:00;OFT_ESC_SOC;left_box;0A4F;1800;1;JG;BD22-065;BD22-058;24.10.2022;27.10.2022;Solarte_B;10;7;BD22-090;black_barred;6,24;347,592;0,643666;1;540,052;0;-1544,42;1544,42;E:\test_videos\OFT\vids_cut\089_OFT.mov-cut.mov;55,70384615;0,103151603;Mel;2;close_side;1,4;5;0,28;to_hand_include;stationary;66;76;12;32;46;6;34;30;6
BD22-089;barred;26.10.2022;14:53:00;OFT_ESC_SOC;left_box;0A4F;1800;1;JG;BD22-065;BD22-058;24.10.2022;27.10.2022;Solarte_B;10;7;BD22-090;black_barred;6,24;347,592;0,643666;1;540,052;0;-1544,42;1544,42;E:\test_videos\OFT\vids_cut\089_OFT.mov-cut.mov;55,70384615;0,103151603;Mel;3;close_side;0,56;2;0,28;to_hand_include;stationary;66;76;12;32;46;6;34;30;6
BD22-089;barred;26.10.2022;14:53:00;OFT_ESC_SOC;left_box;0A4F;1800;1;JG;BD22-065;BD22-058;24.10.2022;27.10.2022;Solarte_B;10;7;BD22-090;black_barred;6,24;347,592;0,643666;1;540,052;0;-1544,42;1544,42;E:\test_videos\OFT\vids_cut\089_OFT.mov-cut.mov;55,70384615;0,103151603;Mel;4;close_side;0,8;3;0,266666667;to_hand_include;stationary;66;76;12;32;46;6;34;30;6
BD22-090;black;26.10.2022;14:57:00;OFT_ESC_SOC;right_box;7607;1800;1;JG;BD22-067;BD22-068;24.10.2022;27.10.2022;Solarte_B;10;7;BD22-089;black_barred;5,6;2528,13;4,68149;1;540,061;0;-893,163;1030,84;E:\test_videos\OFT\vids_cut\090_OFT.MP4-cut.mov;451,4517857;0,835980357;Jakob;1;close_side;0,67;2;0,335;to_hand_include;stationary;128;266;6;70;56;0;58;210;6
BD22-090;black;26.10.2022;14:57:00;OFT_ESC_SOC;right_box;7607;1800;1;JG;BD22-067;BD22-068;24.10.2022;27.10.2022;Solarte_B;10;7;BD22-089;black_barred;5,6;2528,13;4,68149;1;540,061;0;-893,163;1030,84;E:\test_videos\OFT\vids_cut\090_OFT.MP4-cut.mov;451,4517857;0,835980357;Jakob;2;far_side;0,37;1;0,37;to_hand_include;stationary;128;266;6;70;56;0;58;210;6
BD22-090;black;26.10.2022;14:57:00;OFT_ESC_SOC;right_box;7607;1800;1;JG;BD22-067;BD22-068;24.10.2022;27.10.2022;Solarte_B;10;7;BD22-089;black_barred;5,6;2528,13;4,68149;1;540,061;0;-893,163;1030,84;E:\test_videos\OFT\vids_cut\090_OFT.MP4-cut.mov;451,4517857;0,835980357;Jakob;3;middle;0,83;2;0,415;to_hand_include;stationary;128;266;6;70;56;0;58;210;6
BD22-090;black;26.10.2022;14:57:00;OFT_ESC_SOC;right_box;7607;1800;1;JG;BD22-067;BD22-068;24.10.2022;27.10.2022;Solarte_B;10;7;BD22-089;black_barred;5,6;2528,13;4,68149;1;540,061;0;-893,163;1030,84;E:\test_videos\OFT\vids_cut\090_OFT.MP4-cut.mov;451,4517857;0,835980357;Jakob;4;far_side;0,73;2;0,365;to_hand_include;stationary;128;266;6;70;56;0;58;210;6
BD22-091;black;26.10.2022;14:35:00;OFT_ESC_SOC;left_box;7607;1800;1;MH;BD22-083;BD22-103;27.10.2022;31.10.2022;Lagoon_A;10;1;BD22-092;black_black;7,28;138,574;0,256612;1;540,049;0;-793,26;879,31;E:\test_videos\OFT\vids_cut\r_aligned\091_OFT.MP4-cut.mov;19,03489011;0,035248901;Mel;1;close_side;1,04;3;0,346666667;to_hand_include;stationary;156;262;110;68;104;82;88;158;28
BD22-091;black;26.10.2022;14:35:00;OFT_ESC_SOC;left_box;7607;1800;1;MH;BD22-083;BD22-103;27.10.2022;31.10.2022;Lagoon_A;10;1;BD22-092;black_black;7,28;138,574;0,256612;1;540,049;0;-793,26;879,31;E:\test_videos\OFT\vids_cut\r_aligned\091_OFT.MP4-cut.mov;19,03489011;0,035248901;Mel;2;far_side;0,56;3;0,186666667;to_hand_include;stationary;156;262;110;68;104;82;88;158;28
BD22-091;black;26.10.2022;14:35:00;OFT_ESC_SOC;left_box;7607;1800;1;MH;BD22-083;BD22-103;27.10.2022;31.10.2022;Lagoon_A;10;1;BD22-092;black_black;7,28;138,574;0,256612;1;540,049;0;-793,26;879,31;E:\test_videos\OFT\vids_cut\r_aligned\091_OFT.MP4-cut.mov;19,03489011;0,035248901;Mel;3;close_side;1,08;3;0,36;to_hand_include;stationary;156;262;110;68;104;82;88;158;28
BD22-091;black;26.10.2022;14:35:00;OFT_ESC_SOC;left_box;7607;1800;1;MH;BD22-083;BD22-103;27.10.2022;31.10.2022;Lagoon_A;10;1;BD22-092;black_black;7,28;138,574;0,256612;1;540,049;0;-793,26;879,31;E:\test_videos\OFT\vids_cut\r_aligned\091_OFT.MP4-cut.mov;19,03489011;0,035248901;Mel;4;far_side;0,36;2;0,18;to_hand_include;stationary;156;262;110;68;104;82;88;158;28
BD22-092;black;26.10.2022;14:37:00;OFT_ESC_SOC;right_box;0A4F;1800;1;MH;BD22-087;BD22-081;27.10.2022;31.10.2022;Lagoon_A;10;1;BD22-091;black_black;7,18;509,611;0,943697;1;540,049;0;-891,303;930,504;E:\test_videos\OFT\vids_cut\l_algned\092_OFT.MP4-cut.mov;70,9764624;0,131434123;Jakob;2;middle;3,4;5;0,68;to_curtain_exclude;stationary;50;232;18;50;226;18;0;6;0
BD22-092;black;26.10.2022;14:37:00;OFT_ESC_SOC;right_box;0A4F;1800;1;MH;BD22-087;BD22-081;27.10.2022;31.10.2022;Lagoon_A;10;1;BD22-091;black_black;7,18;509,611;0,943697;1;540,049;0;-891,303;930,504;E:\test_videos\OFT\vids_cut\l_algned\092_OFT.MP4-cut.mov;70,9764624;0,131434123;Jakob;1;far_side;1,23;3;0,41;to_hand_include;stationary;50;232;18;50;226;18;0;6;0
BD22-092;black;26.10.2022;14:37:00;OFT_ESC_SOC;right_box;0A4F;1800;1;MH;BD22-087;BD22-081;27.10.2022;31.10.2022;Lagoon_A;10;1;BD22-091;black_black;7,18;509,611;0,943697;1;540,049;0;-891,303;930,504;E:\test_videos\OFT\vids_cut\l_algned\092_OFT.MP4-cut.mov;70,9764624;0,131434123;Jakob;3;close_side;1;3;0,333333333;to_hand_include;stationary;50;232;18;50;226;18;0;6;0
BD22-092;black;26.10.2022;14:37:00;OFT_ESC_SOC;right_box;0A4F;1800;1;MH;BD22-087;BD22-081;27.10.2022;31.10.2022;Lagoon_A;10;1;BD22-091;black_black;7,18;509,611;0,943697;1;540,049;0;-891,303;930,504;E:\test_videos\OFT\vids_cut\l_algned\092_OFT.MP4-cut.mov;70,9764624;0,131434123;Jakob;4;far_side;1,87;4;0,4675;to_hand_include;stationary;50;232;18;50;226;18;0;6;0
BD22-093;barred;29.10.2022;13:51:00;OFT_ESC_SOC;left_box;7607;1800;1;MH;BD22-083;BD22-103;27.10.2022;31.10.2022;Lagoon_A;10;H2;BD22-094;black_barred;6,99;1536,04;2,84445;1;540,049;0;-891,75;935,937;E:\test_videos\OFT\vids_cut\r_aligned\093_OFT.MP4-cut.mov;219,7482117;0,40693133;Jakob;1;middle;2,17;4;0,5425;to_hand_include;stationary;372;168;0;194;56;0;178;112;0
BD22-093;barred;29.10.2022;13:51:00;OFT_ESC_SOC;left_box;7607;1800;1;MH;BD22-083;BD22-103;27.10.2022;31.10.2022;Lagoon_A;10;H2;BD22-094;black_barred;6,99;1536,04;2,84445;1;540,049;0;-891,75;935,937;E:\test_videos\OFT\vids_cut\r_aligned\093_OFT.MP4-cut.mov;219,7482117;0,40693133;Jakob;2;far_side;0,5;2;0,25;to_hand_include;stationary;372;168;0;194;56;0;178;112;0
BD22-093;barred;29.10.2022;13:51:00;OFT_ESC_SOC;left_box;7607;1800;1;MH;BD22-083;BD22-103;27.10.2022;31.10.2022;Lagoon_A;10;H2;BD22-094;black_barred;6,99;1536,04;2,84445;1;540,049;0;-891,75;935,937;E:\test_videos\OFT\vids_cut\r_aligned\093_OFT.MP4-cut.mov;219,7482117;0,40693133;Jakob;3;far_side;0,43;2;0,215;to_hand_include;stationary;372;168;0;194;56;0;178;112;0
BD22-093;barred;29.10.2022;13:51:00;OFT_ESC_SOC;left_box;7607;1800;1;MH;BD22-083;BD22-103;27.10.2022;31.10.2022;Lagoon_A;10;H2;BD22-094;black_barred;6,99;1536,04;2,84445;1;540,049;0;-891,75;935,937;E:\test_videos\OFT\vids_cut\r_aligned\093_OFT.MP4-cut.mov;219,7482117;0,40693133;Jakob;4;middle;0,53;2;0,265;to_hand_include;stationary;372;168;0;194;56;0;178;112;0
BD22-094;black;29.10.2022;13:53:00;OFT_ESC_SOC;right_box;0A4F;1800;1;MH;BD22-087;BD22-081;27.10.2022;31.10.2022;Lagoon_A;10;H2;BD22-093;black_barred;7,5;1375,68;2,54749;1;540,049;0;-891,898;908,256;E:\test_videos\OFT\vids_cut\l_algned\094_OFT.MP4-cut.mov;183,424;0,339665333;Jakob;1;middle;0,73;3;0,243333333;to_hand_include;stationary;74;158;26;40;106;10;34;52;16
BD22-094;black;29.10.2022;13:53:00;OFT_ESC_SOC;right_box;0A4F;1800;1;MH;BD22-087;BD22-081;27.10.2022;31.10.2022;Lagoon_A;10;H2;BD22-093;black_barred;7,5;1375,68;2,54749;1;540,049;0;-891,898;908,256;E:\test_videos\OFT\vids_cut\l_algned\094_OFT.MP4-cut.mov;183,424;0,339665333;Jakob;2;far_side;0,77;3;0,256666667;to_hand_include;stationary;74;158;26;40;106;10;34;52;16
BD22-094;black;29.10.2022;13:53:00;OFT_ESC_SOC;right_box;0A4F;1800;1;MH;BD22-087;BD22-081;27.10.2022;31.10.2022;Lagoon_A;10;H2;BD22-093;black_barred;7,5;1375,68;2,54749;1;540,049;0;-891,898;908,256;E:\test_videos\OFT\vids_cut\l_algned\094_OFT.MP4-cut.mov;183,424;0,339665333;Jakob;3;close_side;0,83;2;0,415;to_hand_include;stationary;74;158;26;40;106;10;34;52;16
BD22-094;black;29.10.2022;13:53:00;OFT_ESC_SOC;right_box;0A4F;1800;1;MH;BD22-087;BD22-081;27.10.2022;31.10.2022;Lagoon_A;10;H2;BD22-093;black_barred;7,5;1375,68;2,54749;1;540,049;0;-891,898;908,256;E:\test_videos\OFT\vids_cut\l_algned\094_OFT.MP4-cut.mov;183,424;0,339665333;Jakob;4;middle;0,67;2;0,335;to_hand_include;stationary;74;158;26;40;106;10;34;52;16
BD22-095;barred;29.10.2022;10:31:00;OFT_ESC_SOC;left_box;7607;1800;1;MH;BD22-083;BD22-088;27.10.2022;31.10.2022;Lagoon_A;10;2;BD22-096;barred_barred;7,62;159,978;0,296246;1;540,049;0;-846,983;877,819;E:\test_videos\OFT\vids_cut\r_aligned\095_OFT.MP4-cut.mov;20,99448819;0,038877428;Jakob;1;middle;0,5;1;0,5;to_hand_include;stationary;64;52;0;50;0;0;14;52;0
BD22-095;barred;29.10.2022;10:31:00;OFT_ESC_SOC;left_box;7607;1800;1;MH;BD22-083;BD22-088;27.10.2022;31.10.2022;Lagoon_A;10;2;BD22-096;barred_barred;7,62;159,978;0,296246;1;540,049;0;-846,983;877,819;E:\test_videos\OFT\vids_cut\r_aligned\095_OFT.MP4-cut.mov;20,99448819;0,038877428;Jakob;2;close_side;1,53;3;0,51;to_hand_include;stationary;64;52;0;50;0;0;14;52;0
BD22-095;barred;29.10.2022;10:31:00;OFT_ESC_SOC;left_box;7607;1800;1;MH;BD22-083;BD22-088;27.10.2022;31.10.2022;Lagoon_A;10;2;BD22-096;barred_barred;7,62;159,978;0,296246;1;540,049;0;-846,983;877,819;E:\test_videos\OFT\vids_cut\r_aligned\095_OFT.MP4-cut.mov;20,99448819;0,038877428;Jakob;3;close_side;0,4;1;0,4;to_hand_include;stationary;64;52;0;50;0;0;14;52;0
BD22-095;barred;29.10.2022;10:31:00;OFT_ESC_SOC;left_box;7607;1800;1;MH;BD22-083;BD22-088;27.10.2022;31.10.2022;Lagoon_A;10;2;BD22-096;barred_barred;7,62;159,978;0,296246;1;540,049;0;-846,983;877,819;E:\test_videos\OFT\vids_cut\r_aligned\095_OFT.MP4-cut.mov;20,99448819;0,038877428;Jakob;4;close_side;1,67;2;0,835;to_hand_include;stationary;64;52;0;50;0;0;14;52;0
BD22-096;barred;29.10.2022;10:33:00;OFT_ESC_SOC;right_box;0A4F;1800;1;MH;BD22-087;BD22-081;27.10.2022;03.11.2022;Lagoon_A;10;2;BD22-095;barred_barred;7,38;4347,91;8,05145;1;540,049;0;-896,386;976,497;E:\test_videos\OFT\vids_cut\l_algned\096_OFT.MP4-cut.mov;589,1476965;1,090982385;Jakob;1;close_side;0,5;2;0,25;to_hand_include;stationary;204;192;64;82;108;46;122;84;18
BD22-096;barred;29.10.2022;10:33:00;OFT_ESC_SOC;right_box;0A4F;1800;1;MH;BD22-087;BD22-081;27.10.2022;03.11.2022;Lagoon_A;10;2;BD22-095;barred_barred;7,38;4347,91;8,05145;1;540,049;0;-896,386;976,497;E:\test_videos\OFT\vids_cut\l_algned\096_OFT.MP4-cut.mov;589,1476965;1,090982385;Jakob;2;far_side;0,73;2;0,365;to_hand_include;stationary;204;192;64;82;108;46;122;84;18
BD22-096;barred;29.10.2022;10:33:00;OFT_ESC_SOC;right_box;0A4F;1800;1;MH;BD22-087;BD22-081;27.10.2022;03.11.2022;Lagoon_A;10;2;BD22-095;barred_barred;7,38;4347,91;8,05145;1;540,049;0;-896,386;976,497;E:\test_videos\OFT\vids_cut\l_algned\096_OFT.MP4-cut.mov;589,1476965;1,090982385;Jakob;3;far_side;0,6;2;0,3;to_hand_include;stationary;204;192;64;82;108;46;122;84;18
BD22-096;barred;29.10.2022;10:33:00;OFT_ESC_SOC;right_box;0A4F;1800;1;MH;BD22-087;BD22-081;27.10.2022;03.11.2022;Lagoon_A;10;2;BD22-095;barred_barred;7,38;4347,91;8,05145;1;540,049;0;-896,386;976,497;E:\test_videos\OFT\vids_cut\l_algned\096_OFT.MP4-cut.mov;589,1476965;1,090982385;Jakob;4;middle;0,6;2;0,3;to_hand_include;stationary;204;192;64;82;108;46;122;84;18
BD22-097;black;29.10.2022;15:26:00;OFT_ESC_SOC;left_box;7607;1800;1;MH;BD22-083;BD22-103;27.10.2022;03.11.2022;Lagoon_A;10;3;BD22-098;black_black;7,32;2826,43;5,23397;1;540,049;0;-901,325;941,399;E:\test_videos\OFT\vids_cut\r_aligned\097_OFT.MP4-cut.mov;386,1243169;0,715023224;Marco;1;far_side;1,9;4;0,475;to_hand_include;stationary;250;234;0;230;130;0;20;104;0
BD22-097;black;29.10.2022;15:26:00;OFT_ESC_SOC;left_box;7607;1800;1;MH;BD22-083;BD22-103;27.10.2022;03.11.2022;Lagoon_A;10;3;BD22-098;black_black;7,32;2826,43;5,23397;1;540,049;0;-901,325;941,399;E:\test_videos\OFT\vids_cut\r_aligned\097_OFT.MP4-cut.mov;386,1243169;0,715023224;Marco;2;close_side;0,9;3;0,3;to_hand_include;stationary;250;234;0;230;130;0;20;104;0
BD22-097;black;29.10.2022;15:26:00;OFT_ESC_SOC;left_box;7607;1800;1;MH;BD22-083;BD22-103;27.10.2022;03.11.2022;Lagoon_A;10;3;BD22-098;black_black;7,32;2826,43;5,23397;1;540,049;0;-901,325;941,399;E:\test_videos\OFT\vids_cut\r_aligned\097_OFT.MP4-cut.mov;386,1243169;0,715023224;Marco;3;middle;0,8;2;0,4;to_hand_include;stationary;250;234;0;230;130;0;20;104;0
BD22-097;black;29.10.2022;15:26:00;OFT_ESC_SOC;left_box;7607;1800;1;MH;BD22-083;BD22-103;27.10.2022;03.11.2022;Lagoon_A;10;3;BD22-098;black_black;7,32;2826,43;5,23397;1;540,049;0;-901,325;941,399;E:\test_videos\OFT\vids_cut\r_aligned\097_OFT.MP4-cut.mov;386,1243169;0,715023224;Marco;4;close_side;1,5;3;0,5;to_hand_include;stationary;250;234;0;230;130;0;20;104;0
BD22-098;black;29.10.2022;15:28:00;OFT_ESC_SOC;right_box;0A4F;1800;1;MH;BD22-087;BD22-081;27.10.2022;03.11.2022;Lagoon_A;10;3;BD22-097;black_black;7,03;942,838;1,74593;1;540,052;0;-893,533;914,466;E:\test_videos\OFT\vids_cut\l_algned\098_OFT.MP4-cut.mov;134,1163585;0,248354196;Mel;1;middle;1,4;3;0,466666667;to_hand_include;stationary;88;54;12;80;44;8;8;10;4
BD22-098;black;29.10.2022;15:28:00;OFT_ESC_SOC;right_box;0A4F;1800;1;MH;BD22-087;BD22-081;27.10.2022;03.11.2022;Lagoon_A;10;3;BD22-097;black_black;7,03;942,838;1,74593;1;540,052;0;-893,533;914,466;E:\test_videos\OFT\vids_cut\l_algned\098_OFT.MP4-cut.mov;134,1163585;0,248354196;Mel;2;close_side;2,28;3;0,76;to_hand_include;stationary;88;54;12;80;44;8;8;10;4
BD22-098;black;29.10.2022;15:28:00;OFT_ESC_SOC;right_box;0A4F;1800;1;MH;BD22-087;BD22-081;27.10.2022;03.11.2022;Lagoon_A;10;3;BD22-097;black_black;7,03;942,838;1,74593;1;540,052;0;-893,533;914,466;E:\test_videos\OFT\vids_cut\l_algned\098_OFT.MP4-cut.mov;134,1163585;0,248354196;Mel;3;middle;2,24;3;0,746666667;to_hand_include;stationary;88;54;12;80;44;8;8;10;4
BD22-098;black;29.10.2022;15:28:00;OFT_ESC_SOC;right_box;0A4F;1800;1;MH;BD22-087;BD22-081;27.10.2022;03.11.2022;Lagoon_A;10;3;BD22-097;black_black;7,03;942,838;1,74593;1;540,052;0;-893,533;914,466;E:\test_videos\OFT\vids_cut\l_algned\098_OFT.MP4-cut.mov;134,1163585;0,248354196;Mel;4;middle;1,64;4;0,41;to_hand_include;stationary;88;54;12;80;44;8;8;10;4
BD22-099;barred;29.10.2022;12:11:00;OFT_ESC_SOC;left_box;7607;1800;1;MH;BD22-083;BD22-103;27.10.2022;03.11.2022;Lagoon_A;10;4;BD22-100;barred_barred;6,84;36,8807;0,0682957;1;540,049;0;-598,517;598,517;E:\test_videos\OFT\vids_cut\r_aligned\099_OFT.MP4-cut.mov;5,391915205;0,009984751;Marco;1;middle;1,8;3;0,6;to_hand_include;stationary;162;90;20;128;78;14;34;12;6
BD22-099;barred;29.10.2022;12:11:00;OFT_ESC_SOC;left_box;7607;1800;1;MH;BD22-083;BD22-103;27.10.2022;03.11.2022;Lagoon_A;10;4;BD22-100;barred_barred;6,84;36,8807;0,0682957;1;540,049;0;-598,517;598,517;E:\test_videos\OFT\vids_cut\r_aligned\099_OFT.MP4-cut.mov;5,391915205;0,009984751;Marco;2;far_side;0,4;2;0,2;to_hand_include;stationary;162;90;20;128;78;14;34;12;6
BD22-099;barred;29.10.2022;12:11:00;OFT_ESC_SOC;left_box;7607;1800;1;MH;BD22-083;BD22-103;27.10.2022;03.11.2022;Lagoon_A;10;4;BD22-100;barred_barred;6,84;36,8807;0,0682957;1;540,049;0;-598,517;598,517;E:\test_videos\OFT\vids_cut\r_aligned\099_OFT.MP4-cut.mov;5,391915205;0,009984751;Marco;3;middle;2;4;0,5;to_hand_include;stationary;162;90;20;128;78;14;34;12;6
BD22-099;barred;29.10.2022;12:11:00;OFT_ESC_SOC;left_box;7607;1800;1;MH;BD22-083;BD22-103;27.10.2022;03.11.2022;Lagoon_A;10;4;BD22-100;barred_barred;6,84;36,8807;0,0682957;1;540,049;0;-598,517;598,517;E:\test_videos\OFT\vids_cut\r_aligned\099_OFT.MP4-cut.mov;5,391915205;0,009984751;Marco;4;far_side;0,4;2;0,2;to_hand_include;stationary;162;90;20;128;78;14;34;12;6
BD22-100;barred;29.10.2022;12:13:00;OFT_ESC_SOC;right_box;0A4F;1800;1;MH;BD22-087;BD22-081;27.10.2022;31.10.2022;Lagoon_A;10;4;BD22-099;barred_barred;6,24;102,983;0,190703;1;540,052;0;-772,23;772,23;E:\test_videos\OFT\vids_cut\l_algned\100_OFT.MP4-cut.mov;16,5036859;0,030561378;Marco;1;close_side;0,6;3;0,2;to_hand_include;stationary;24;254;0;0;250;0;24;4;0
BD22-100;barred;29.10.2022;12:13:00;OFT_ESC_SOC;right_box;0A4F;1800;1;MH;BD22-087;BD22-081;27.10.2022;31.10.2022;Lagoon_A;10;4;BD22-099;barred_barred;6,24;102,983;0,190703;1;540,052;0;-772,23;772,23;E:\test_videos\OFT\vids_cut\l_algned\100_OFT.MP4-cut.mov;16,5036859;0,030561378;Marco;2;far_side;0,3;2;0,15;to_hand_include;stationary;24;254;0;0;250;0;24;4;0
BD22-100;barred;29.10.2022;12:13:00;OFT_ESC_SOC;right_box;0A4F;1800;1;MH;BD22-087;BD22-081;27.10.2022;31.10.2022;Lagoon_A;10;4;BD22-099;barred_barred;6,24;102,983;0,190703;1;540,052;0;-772,23;772,23;E:\test_videos\OFT\vids_cut\l_algned\100_OFT.MP4-cut.mov;16,5036859;0,030561378;Marco;3;middle;1,1;3;0,366666667;to_hand_include;stationary;24;254;0;0;250;0;24;4;0
BD22-100;barred;29.10.2022;12:13:00;OFT_ESC_SOC;right_box;0A4F;1800;1;MH;BD22-087;BD22-081;27.10.2022;31.10.2022;Lagoon_A;10;4;BD22-099;barred_barred;6,24;102,983;0,190703;1;540,052;0;-772,23;772,23;E:\test_videos\OFT\vids_cut\l_algned\100_OFT.MP4-cut.mov;16,5036859;0,030561378;Marco;4;far_side;1,7;3;0,566666667;to_hand_include;stationary;24;254;0;0;250;0;24;4;0
BD22-101;black;29.10.2022;11:21:00;OFT_ESC_SOC;left_box;7607;1800;1;MH;BD22-083;BD22-103;27.10.2022;31.10.2022;Lagoon_A;10;5;BD22-102;black_barred;7,17;40,9394;0,0758116;1;540,049;0;-565,181;565,181;E:\test_videos\OFT\vids_cut\r_aligned\101_OFT.MP4-cut.mov;5,709818689;0,010573445;Marco;1;close_side;0,9;1;0,9;touched;stationary;330;214;8;62;152;8;268;62;0
BD22-101;black;29.10.2022;11:21:00;OFT_ESC_SOC;left_box;7607;1800;1;MH;BD22-083;BD22-103;27.10.2022;31.10.2022;Lagoon_A;10;5;BD22-102;black_barred;7,17;40,9394;0,0758116;1;540,049;0;-565,181;565,181;E:\test_videos\OFT\vids_cut\r_aligned\101_OFT.MP4-cut.mov;5,709818689;0,010573445;Marco;2;close_side;0,1;1;0,1;touched;stationary;330;214;8;62;152;8;268;62;0
BD22-101;black;29.10.2022;11:21:00;OFT_ESC_SOC;left_box;7607;1800;1;MH;BD22-083;BD22-103;27.10.2022;31.10.2022;Lagoon_A;10;5;BD22-102;black_barred;7,17;40,9394;0,0758116;1;540,049;0;-565,181;565,181;E:\test_videos\OFT\vids_cut\r_aligned\101_OFT.MP4-cut.mov;5,709818689;0,010573445;Marco;3;close_side;0,1;1;0,1;touched;stationary;330;214;8;62;152;8;268;62;0
BD22-101;black;29.10.2022;11:21:00;OFT_ESC_SOC;left_box;7607;1800;1;MH;BD22-083;BD22-103;27.10.2022;31.10.2022;Lagoon_A;10;5;BD22-102;black_barred;7,17;40,9394;0,0758116;1;540,049;0;-565,181;565,181;E:\test_videos\OFT\vids_cut\r_aligned\101_OFT.MP4-cut.mov;5,709818689;0,010573445;Marco;4;close_side;0,1;1;0,1;touched;stationary;330;214;8;62;152;8;268;62;0
BD22-102;barred;29.10.2022;11:24:00;OFT_ESC_SOC;right_box;0A4F;1800;1;MH;BD22-087;BD22-081;27.10.2022;31.10.2022;Lagoon_A;10;5;BD22-101;black_barred;6,73;92,153;0,170645;1;540,061;0;-666,372;666,372;E:\test_videos\OFT\vids_cut\l_algned\102_OFT.MP4-cut.mov;13,69286776;0,025355869;Mel;1;far_side;0,68;3;0,226666667;to_hand_include;stationary;40;34;24;26;0;0;14;34;0
BD22-102;barred;29.10.2022;11:24:00;OFT_ESC_SOC;right_box;0A4F;1800;1;MH;BD22-087;BD22-081;27.10.2022;31.10.2022;Lagoon_A;10;5;BD22-101;black_barred;6,73;92,153;0,170645;1;540,061;0;-666,372;666,372;E:\test_videos\OFT\vids_cut\l_algned\102_OFT.MP4-cut.mov;13,69286776;0,025355869;Mel;2;middle;0,76;4;0,19;to_hand_include;stationary;40;34;24;26;0;0;14;34;0
BD22-102;barred;29.10.2022;11:24:00;OFT_ESC_SOC;right_box;0A4F;1800;1;MH;BD22-087;BD22-081;27.10.2022;31.10.2022;Lagoon_A;10;5;BD22-101;black_barred;6,73;92,153;0,170645;1;540,061;0;-666,372;666,372;E:\test_videos\OFT\vids_cut\l_algned\102_OFT.MP4-cut.mov;13,69286776;0,025355869;Mel;3;close_side;0,64;3;0,213333333;to_hand_include;stationary;40;34;24;26;0;0;14;34;0
BD22-102;barred;29.10.2022;11:24:00;OFT_ESC_SOC;right_box;0A4F;1800;1;MH;BD22-087;BD22-081;27.10.2022;31.10.2022;Lagoon_A;10;5;BD22-101;black_barred;6,73;92,153;0,170645;1;540,061;0;-666,372;666,372;E:\test_videos\OFT\vids_cut\l_algned\102_OFT.MP4-cut.mov;13,69286776;0,025355869;Mel;4;far_side;0,64;2;0,32;to_hand_include;stationary;40;34;24;26;0;0;14;34;0
BD22-103;black;29.10.2022;09:40:00;OFT_ESC_SOC;left_box;7607;1800;1;MH;BD22-083;BD22-088;27.10.2022;31.10.2022;Lagoon_A;10;7;BD22-104;black_black;7,41;877,763;1,62544;1;540,049;0;-880,827;890,231;E:\test_videos\OFT\vids_cut\r_aligned\103_OFT.MP4-cut.mov;118,4565452;0,219357625;Jakob;1;far_side;2,3;4;0,575;to_hand_include;stationary;78;148;12;34;96;0;44;52;12
BD22-103;black;29.10.2022;09:40:00;OFT_ESC_SOC;left_box;7607;1800;1;MH;BD22-083;BD22-088;27.10.2022;31.10.2022;Lagoon_A;10;7;BD22-104;black_black;7,41;877,763;1,62544;1;540,049;0;-880,827;890,231;E:\test_videos\OFT\vids_cut\r_aligned\103_OFT.MP4-cut.mov;118,4565452;0,219357625;Jakob;2;far_side;0,7;3;0,233333333;to_hand_include;stationary;78;148;12;34;96;0;44;52;12
BD22-103;black;29.10.2022;09:40:00;OFT_ESC_SOC;left_box;7607;1800;1;MH;BD22-083;BD22-088;27.10.2022;31.10.2022;Lagoon_A;10;7;BD22-104;black_black;7,41;877,763;1,62544;1;540,049;0;-880,827;890,231;E:\test_videos\OFT\vids_cut\r_aligned\103_OFT.MP4-cut.mov;118,4565452;0,219357625;Jakob;3;close_side;2,17;2;1,085;to_hand_include;stationary;78;148;12;34;96;0;44;52;12
BD22-103;black;29.10.2022;09:40:00;OFT_ESC_SOC;left_box;7607;1800;1;MH;BD22-083;BD22-088;27.10.2022;31.10.2022;Lagoon_A;10;7;BD22-104;black_black;7,41;877,763;1,62544;1;540,049;0;-880,827;890,231;E:\test_videos\OFT\vids_cut\r_aligned\103_OFT.MP4-cut.mov;118,4565452;0,219357625;Jakob;4;close_side;2,47;3;0,823333333;to_hand_include;stationary;78;148;12;34;96;0;44;52;12
BD22-105;black;02.11.2022;14:08:00;OFT_ESC_SOC;left_box;7607;1800;1;JG;BD22-096;BD22-097;31.10.2022;03.11.2022;Bastimentos_A2;25;1;BD22-106;black_black;8,35;938,393;1,73772;1;540,049;0;-889,948;904,923;E:\test_videos\OFT\vids_cut\r_aligned\105_OFT.MP4-cut.mov;112,3823952;0,20811018;Mel;1;far_side;0,28;1;0,28;to_hand_include;stationary;112;102;10;112;102;10;0;0;0
BD22-105;black;02.11.2022;14:08:00;OFT_ESC_SOC;left_box;7607;1800;1;JG;BD22-096;BD22-097;31.10.2022;03.11.2022;Bastimentos_A2;25;1;BD22-106;black_black;8,35;938,393;1,73772;1;540,049;0;-889,948;904,923;E:\test_videos\OFT\vids_cut\r_aligned\105_OFT.MP4-cut.mov;112,3823952;0,20811018;Mel;2;far_side;0,52;2;0,26;to_hand_include;stationary;112;102;10;112;102;10;0;0;0
BD22-105;black;02.11.2022;14:08:00;OFT_ESC_SOC;left_box;7607;1800;1;JG;BD22-096;BD22-097;31.10.2022;03.11.2022;Bastimentos_A2;25;1;BD22-106;black_black;8,35;938,393;1,73772;1;540,049;0;-889,948;904,923;E:\test_videos\OFT\vids_cut\r_aligned\105_OFT.MP4-cut.mov;112,3823952;0,20811018;Mel;3;middle;0,48;2;0,24;to_hand_include;stationary;112;102;10;112;102;10;0;0;0
BD22-105;black;02.11.2022;14:08:00;OFT_ESC_SOC;left_box;7607;1800;1;JG;BD22-096;BD22-097;31.10.2022;03.11.2022;Bastimentos_A2;25;1;BD22-106;black_black;8,35;938,393;1,73772;1;540,049;0;-889,948;904,923;E:\test_videos\OFT\vids_cut\r_aligned\105_OFT.MP4-cut.mov;112,3823952;0,20811018;Mel;4;far_side;0,44;2;0,22;to_hand_include;stationary;112;102;10;112;102;10;0;0;0
BD22-106;black;02.11.2022;14:11:00;OFT_ESC_SOC;right_box;0A4F;1800;1;JG;BD22-099;BD22-098;31.10.2022;03.11.2022;Bastimentos_A2;25;1;BD22-105;black_black;7,7;5422,15;10,0406;1;540,054;0;-922,199;977,7;E:\test_videos\OFT\vids_cut\106_OFT.MP4-cut.mov;704,1753247;1,303974026;Mel;1;far_side;1,08;4;0,27;to_hand_include;stationary;38;36;8;38;28;8;0;8;0
BD22-106;black;02.11.2022;14:11:00;OFT_ESC_SOC;right_box;0A4F;1800;1;JG;BD22-099;BD22-098;31.10.2022;03.11.2022;Bastimentos_A2;25;1;BD22-105;black_black;7,7;5422,15;10,0406;1;540,054;0;-922,199;977,7;E:\test_videos\OFT\vids_cut\106_OFT.MP4-cut.mov;704,1753247;1,303974026;Mel;2;close_side;0,36;2;0,18;to_hand_include;swimming;38;36;8;38;28;8;0;8;0
BD22-106;black;02.11.2022;14:11:00;OFT_ESC_SOC;right_box;0A4F;1800;1;JG;BD22-099;BD22-098;31.10.2022;03.11.2022;Bastimentos_A2;25;1;BD22-105;black_black;7,7;5422,15;10,0406;1;540,054;0;-922,199;977,7;E:\test_videos\OFT\vids_cut\106_OFT.MP4-cut.mov;704,1753247;1,303974026;Mel;3;middle;0,76;3;0,253333333;to_hand_include;swimming;38;36;8;38;28;8;0;8;0
BD22-106;black;02.11.2022;14:11:00;OFT_ESC_SOC;right_box;0A4F;1800;1;JG;BD22-099;BD22-098;31.10.2022;03.11.2022;Bastimentos_A2;25;1;BD22-105;black_black;7,7;5422,15;10,0406;1;540,054;0;-922,199;977,7;E:\test_videos\OFT\vids_cut\106_OFT.MP4-cut.mov;704,1753247;1,303974026;Mel;4;close_side;0,64;2;0,32;to_hand_include;stationary;38;36;8;38;28;8;0;8;0
BD22-107;black;02.11.2022;14:56:00;OFT_ESC_SOC;left_box;7607;1800;1;JG;BD22-096;BD22-097;31.10.2022;03.11.2022;Bastimentos_A2;25;H2;BD22-108;black_black;7,17;898,287;1,66345;1;540,049;0;-900,939;915,193;E:\test_videos\OFT\vids_cut\r_aligned\107_OFT.MP4-cut.mov;125,2841004;0,232001395;Jakob;1;far_side;0,5;1;0,5;to_hand_include;stationary;86;138;44;70;22;12;16;116;32
BD22-107;black;02.11.2022;14:56:00;OFT_ESC_SOC;left_box;7607;1800;1;JG;BD22-096;BD22-097;31.10.2022;03.11.2022;Bastimentos_A2;25;H2;BD22-108;black_black;7,17;898,287;1,66345;1;540,049;0;-900,939;915,193;E:\test_videos\OFT\vids_cut\r_aligned\107_OFT.MP4-cut.mov;125,2841004;0,232001395;Jakob;2;middle;1,63;4;0,4075;to_hand_include;stationary;86;138;44;70;22;12;16;116;32
BD22-107;black;02.11.2022;14:56:00;OFT_ESC_SOC;left_box;7607;1800;1;JG;BD22-096;BD22-097;31.10.2022;03.11.2022;Bastimentos_A2;25;H2;BD22-108;black_black;7,17;898,287;1,66345;1;540,049;0;-900,939;915,193;E:\test_videos\OFT\vids_cut\r_aligned\107_OFT.MP4-cut.mov;125,2841004;0,232001395;Jakob;3;far_side;0,53;2;0,265;to_hand_include;stationary;86;138;44;70;22;12;16;116;32
BD22-107;black;02.11.2022;14:56:00;OFT_ESC_SOC;left_box;7607;1800;1;JG;BD22-096;BD22-097;31.10.2022;03.11.2022;Bastimentos_A2;25;H2;BD22-108;black_black;7,17;898,287;1,66345;1;540,049;0;-900,939;915,193;E:\test_videos\OFT\vids_cut\r_aligned\107_OFT.MP4-cut.mov;125,2841004;0,232001395;Jakob;4;far_side;1,47;2;0,735;to_hand_include;stationary;86;138;44;70;22;12;16;116;32
BD22-108;black;02.11.2022;15:00:00;OFT_ESC_SOC;right_box;0A4F;1800;1;JG;BD22-099;BD22-098;31.10.2022;03.11.2022;Bastimentos_A2;25;H2;BD22-107;black_black;7,62;11965,9;22,1584;1;540,049;0;-903,798;993,117;E:\test_videos\OFT\vids_cut\108_OFT.MP4-cut.mov;1570,328084;2,907926509;Marco;1;close_side;0,88;2;0,44;to_hand_include;stationary;74;32;12;22;20;8;12;52;4
BD22-108;black;02.11.2022;15:00:00;OFT_ESC_SOC;right_box;0A4F;1800;1;JG;BD22-099;BD22-098;31.10.2022;03.11.2022;Bastimentos_A2;25;H2;BD22-107;black_black;7,62;11965,9;22,1584;1;540,049;0;-903,798;993,117;E:\test_videos\OFT\vids_cut\108_OFT.MP4-cut.mov;1570,328084;2,907926509;Marco;2;NA;NA;NA;NA;NA;NA;74;32;12;22;20;8;12;52;4
BD22-108;black;02.11.2022;15:00:00;OFT_ESC_SOC;right_box;0A4F;1800;1;JG;BD22-099;BD22-098;31.10.2022;03.11.2022;Bastimentos_A2;25;H2;BD22-107;black_black;7,62;11965,9;22,1584;1;540,049;0;-903,798;993,117;E:\test_videos\OFT\vids_cut\108_OFT.MP4-cut.mov;1570,328084;2,907926509;Marco;3;NA;NA;NA;NA;NA;NA;74;32;12;22;20;8;12;52;4
BD22-108;black;02.11.2022;15:00:00;OFT_ESC_SOC;right_box;0A4F;1800;1;JG;BD22-099;BD22-098;31.10.2022;03.11.2022;Bastimentos_A2;25;H2;BD22-107;black_black;7,62;11965,9;22,1584;1;540,049;0;-903,798;993,117;E:\test_videos\OFT\vids_cut\108_OFT.MP4-cut.mov;1570,328084;2,907926509;Marco;4;NA;NA;NA;NA;NA;NA;74;32;12;22;20;8;12;52;4
BD22-109;barred;02.11.2022;12:08:00;OFT_ESC_SOC;left_box;7607;1800;1;JG;BD22-096;BD22-097;31.10.2022;07.11.2022;Solarte_B;10;2;BD22-110;black_barred;7,6;4924,66;9,11927;1;540,061;0;-897,763;925,342;E:\test_videos\OFT\vids_cut\r_aligned\109_OFT.MP4-cut.mov;647,9815789;1,199903947;Jakob;1;middle;0,83;2;0,415;to_hand_include;stationary;226;100;0;226;60;0;0;40;0
BD22-109;barred;02.11.2022;12:08:00;OFT_ESC_SOC;left_box;7607;1800;1;JG;BD22-096;BD22-097;31.10.2022;07.11.2022;Solarte_B;10;2;BD22-110;black_barred;7,6;4924,66;9,11927;1;540,061;0;-897,763;925,342;E:\test_videos\OFT\vids_cut\r_aligned\109_OFT.MP4-cut.mov;647,9815789;1,199903947;Jakob;2;far_side;0,48;4;0,12;to_hand_include;stationary;226;100;0;226;60;0;0;40;0
BD22-109;barred;02.11.2022;12:08:00;OFT_ESC_SOC;left_box;7607;1800;1;JG;BD22-096;BD22-097;31.10.2022;07.11.2022;Solarte_B;10;2;BD22-110;black_barred;7,6;4924,66;9,11927;1;540,061;0;-897,763;925,342;E:\test_videos\OFT\vids_cut\r_aligned\109_OFT.MP4-cut.mov;647,9815789;1,199903947;Jakob;3;close_side;1,3;5;0,26;to_hand_include;stationary;226;100;0;226;60;0;0;40;0
BD22-109;barred;02.11.2022;12:08:00;OFT_ESC_SOC;left_box;7607;1800;1;JG;BD22-096;BD22-097;31.10.2022;07.11.2022;Solarte_B;10;2;BD22-110;black_barred;7,6;4924,66;9,11927;1;540,061;0;-897,763;925,342;E:\test_videos\OFT\vids_cut\r_aligned\109_OFT.MP4-cut.mov;647,9815789;1,199903947;Jakob;4;close_side;1,92;4;0,48;to_hand_include;stationary;226;100;0;226;60;0;0;40;0
BD22-110;black;02.11.2022;12:11:00;OFT_ESC_SOC;right_box;0A4F;1800;1;JG;BD22-099;BD22-098;31.10.2022;03.11.2022;Solarte_B;10;2;BD22-109;black_barred;7,34;575,178;1,06511;1;540,049;0;-897,039;897,469;E:\test_videos\OFT\vids_cut\110_OFT.MP4-cut.mov;78,36212534;0,145110354;Jakob;1;far_side;2,2;3;0,733333333;to_hand_include;stationary;144;122;10;58;58;0;86;64;10
BD22-110;black;02.11.2022;12:11:00;OFT_ESC_SOC;right_box;0A4F;1800;1;JG;BD22-099;BD22-098;31.10.2022;03.11.2022;Solarte_B;10;2;BD22-109;black_barred;7,34;575,178;1,06511;1;540,049;0;-897,039;897,469;E:\test_videos\OFT\vids_cut\110_OFT.MP4-cut.mov;78,36212534;0,145110354;Jakob;2;middle;0,8;2;0,4;to_hand_include;stationary;144;122;10;58;58;0;86;64;10
BD22-110;black;02.11.2022;12:11:00;OFT_ESC_SOC;right_box;0A4F;1800;1;JG;BD22-099;BD22-098;31.10.2022;03.11.2022;Solarte_B;10;2;BD22-109;black_barred;7,34;575,178;1,06511;1;540,049;0;-897,039;897,469;E:\test_videos\OFT\vids_cut\110_OFT.MP4-cut.mov;78,36212534;0,145110354;Jakob;3;far_side;0,3;2;0,15;to_hand_include;stationary;144;122;10;58;58;0;86;64;10
BD22-110;black;02.11.2022;12:11:00;OFT_ESC_SOC;right_box;0A4F;1800;1;JG;BD22-099;BD22-098;31.10.2022;03.11.2022;Solarte_B;10;2;BD22-109;black_barred;7,34;575,178;1,06511;1;540,049;0;-897,039;897,469;E:\test_videos\OFT\vids_cut\110_OFT.MP4-cut.mov;78,36212534;0,145110354;Jakob;4;middle;0,6;2;0,3;to_hand_include;stationary;144;122;10;58;58;0;86;64;10
BD22-111;black;02.11.2022;09:52:00;OFT_ESC_SOC;left_box;7607;1800;1;JG;BD22-099;BD22-098;31.10.2022;03.11.2022;Solarte_B;10;3;BD22-112;black_barred;7,16;68,8196;0,12744;1;540,049;0;-890,759;907,061;E:\test_videos\OFT\vids_cut\r_aligned\111_OFT.MP4-cut.mov;9,611675978;0,017798883;Jakob;1;far_side;0,27;1;0,27;to_hand_include;stationary;64;170;32;64;156;28;0;14;4
BD22-111;black;02.11.2022;09:52:00;OFT_ESC_SOC;left_box;7607;1800;1;JG;BD22-099;BD22-098;31.10.2022;03.11.2022;Solarte_B;10;3;BD22-112;black_barred;7,16;68,8196;0,12744;1;540,049;0;-890,759;907,061;E:\test_videos\OFT\vids_cut\r_aligned\111_OFT.MP4-cut.mov;9,611675978;0,017798883;Jakob;2;middle;0,33;2;0,165;to_hand_include;stationary;64;170;32;64;156;28;0;14;4
BD22-111;black;02.11.2022;09:52:00;OFT_ESC_SOC;left_box;7607;1800;1;JG;BD22-099;BD22-098;31.10.2022;03.11.2022;Solarte_B;10;3;BD22-112;black_barred;7,16;68,8196;0,12744;1;540,049;0;-890,759;907,061;E:\test_videos\OFT\vids_cut\r_aligned\111_OFT.MP4-cut.mov;9,611675978;0,017798883;Jakob;3;middle;0,57;2;0,285;to_hand_include;stationary;64;170;32;64;156;28;0;14;4
BD22-111;black;02.11.2022;09:52:00;OFT_ESC_SOC;left_box;7607;1800;1;JG;BD22-099;BD22-098;31.10.2022;03.11.2022;Solarte_B;10;3;BD22-112;black_barred;7,16;68,8196;0,12744;1;540,049;0;-890,759;907,061;E:\test_videos\OFT\vids_cut\r_aligned\111_OFT.MP4-cut.mov;9,611675978;0,017798883;Jakob;4;far_side;0,43;2;0,215;to_hand_include;stationary;64;170;32;64;156;28;0;14;4
BD22-112;barred;02.11.2022;09:55:00;OFT_ESC_SOC;right_box;0A4F;1800;1;JG;BD22-096;BD22-097;31.10.2022;03.11.2022;Solarte_B;10;3;BD22-111;black_barred;7,74;5733,6;10,6174;1;540,052;0;-897,507;975,297;E:\test_videos\OFT\vids_cut\112_OFT.MP4-cut.mov;740,7751938;1,371757106;Jakob;1;close_side;3;9;0,333333333;to_hand_include;stationary;106;42;36;92;42;0;14;0;36
BD22-112;barred;02.11.2022;09:55:00;OFT_ESC_SOC;right_box;0A4F;1800;1;JG;BD22-096;BD22-097;31.10.2022;03.11.2022;Solarte_B;10;3;BD22-111;black_barred;7,74;5733,6;10,6174;1;540,052;0;-897,507;975,297;E:\test_videos\OFT\vids_cut\112_OFT.MP4-cut.mov;740,7751938;1,371757106;Jakob;2;far_side;1,53;4;0,3825;to_hand_include;stationary;106;42;36;92;42;0;14;0;36
BD22-112;barred;02.11.2022;09:55:00;OFT_ESC_SOC;right_box;0A4F;1800;1;JG;BD22-096;BD22-097;31.10.2022;03.11.2022;Solarte_B;10;3;BD22-111;black_barred;7,74;5733,6;10,6174;1;540,052;0;-897,507;975,297;E:\test_videos\OFT\vids_cut\112_OFT.MP4-cut.mov;740,7751938;1,371757106;Jakob;3;far_side;0,97;3;0,323333333;to_hand_include;stationary;106;42;36;92;42;0;14;0;36
BD22-112;barred;02.11.2022;09:55:00;OFT_ESC_SOC;right_box;0A4F;1800;1;JG;BD22-096;BD22-097;31.10.2022;03.11.2022;Solarte_B;10;3;BD22-111;black_barred;7,74;5733,6;10,6174;1;540,052;0;-897,507;975,297;E:\test_videos\OFT\vids_cut\112_OFT.MP4-cut.mov;740,7751938;1,371757106;Jakob;4;far_side;0,47;2;0,235;to_hand_include;stationary;106;42;36;92;42;0;14;0;36
BD22-113;barred;02.11.2022;10:40:00;OFT_ESC_SOC;left_box;7607;1800;1;JG;BD22-099;BD22-098;31.10.2022;03.11.2022;Solarte_B;10;4;BD22-114;barred_barred;8,09;135,343;0,250626;1;540,052;0;-887,184;887,184;E:\test_videos\OFT\vids_cut\r_aligned\113_OFT.MP4-cut.mov;16,72966625;0,030979728;Jakob;1;close_side;0,63;2;0,315;to_hand_include;stationary;98;98;36;30;58;30;68;40;6
BD22-113;barred;02.11.2022;10:40:00;OFT_ESC_SOC;left_box;7607;1800;1;JG;BD22-099;BD22-098;31.10.2022;03.11.2022;Solarte_B;10;4;BD22-114;barred_barred;8,09;135,343;0,250626;1;540,052;0;-887,184;887,184;E:\test_videos\OFT\vids_cut\r_aligned\113_OFT.MP4-cut.mov;16,72966625;0,030979728;Jakob;2;middle;1,6;2;0,8;to_hand_include;stationary;98;98;36;30;58;30;68;40;6
BD22-113;barred;02.11.2022;10:40:00;OFT_ESC_SOC;left_box;7607;1800;1;JG;BD22-099;BD22-098;31.10.2022;03.11.2022;Solarte_B;10;4;BD22-114;barred_barred;8,09;135,343;0,250626;1;540,052;0;-887,184;887,184;E:\test_videos\OFT\vids_cut\r_aligned\113_OFT.MP4-cut.mov;16,72966625;0,030979728;Jakob;3;middle;0,43;3;0,143333333;to_hand_include;stationary;98;98;36;30;58;30;68;40;6
BD22-113;barred;02.11.2022;10:40:00;OFT_ESC_SOC;left_box;7607;1800;1;JG;BD22-099;BD22-098;31.10.2022;03.11.2022;Solarte_B;10;4;BD22-114;barred_barred;8,09;135,343;0,250626;1;540,052;0;-887,184;887,184;E:\test_videos\OFT\vids_cut\r_aligned\113_OFT.MP4-cut.mov;16,72966625;0,030979728;Jakob;4;far_side;0,73;2;0,365;to_hand_include;stationary;98;98;36;30;58;30;68;40;6
BD22-114;barred;02.11.2022;10:42:00;OFT_ESC_SOC;right_box;0A4F;1800;1;JG;BD22-096;BD22-097;31.10.2022;03.11.2022;Solarte_B;10;4;BD22-113;barred_barred;7,64;89,9301;0,166531;1;540,052;0;-565,114;565,114;E:\test_videos\OFT\vids_cut\114_OFT.MP4-cut.mov;11,7709555;0,021797251;Mel;1;middle;1,04;3;0,346666667;to_hand_include;stationary;92;94;34;26;58;26;66;36;8
